"t","SARA_Accel_X_010","SARA_Accel_Y_010"
1.149195256,0.0599999999999454,0
1.15919555,0.120000000000005,0.0599999999999454
1.169195844,0.159999999999968,0.0800000000000409
1.179196119,0.17999999999995,0.0800000000000409
1.189196413,0.139999999999986,0.0199999999999818
1.199196707,0.100000000000023,-0.0199999999999818
1.209197021,0.0399999999999636,-0.0599999999999454
1.219197315,0.0399999999999636,-0.0399999999999636
1.229197609,0.100000000000023,0.0199999999999818
1.239197942,0.17999999999995,0.0800000000000409
1.249198256,0.220000000000027,0.100000000000023
1.25919855,0.200000000000045,0.0199999999999818
1.269198844,0.139999999999986,-0.0399999999999636
1.279199157,0.0800000000000409,-0.0800000000000409
1.289199471,0.0399999999999636,-0.0800000000000409
1.299199784,0.0599999999999454,-0.0399999999999636
1.309200079,0.120000000000005,0
1.319200372,0.200000000000045,0.0199999999999818
1.329200647,0.240000000000009,0.0199999999999818
1.33920098,0.200000000000045,0
1.349201274,0.120000000000005,-0.0599999999999454
1.359201606,0.0599999999999454,-0.120000000000005
1.369201881,0.0599999999999454,-0.139999999999986
1.379202176,0.120000000000005,-0.100000000000023
1.389202489,0.17999999999995,-0.0599999999999454
1.399202783,0.200000000000045,-0.0399999999999636
1.409203078,0.17999999999995,-0.0800000000000409
1.419203372,0.120000000000005,-0.120000000000005
1.429203685,0.0599999999999454,-0.17999999999995
1.439204018,0.0399999999999636,-0.200000000000045
1.449204312,0.0599999999999454,-0.159999999999968
1.459204606,0.139999999999986,-0.100000000000023
1.469204881,0.220000000000027,-0.0800000000000409
1.479205214,0.220000000000027,-0.120000000000005
1.489205528,0.200000000000045,-0.159999999999968
1.499205841,0.139999999999986,-0.200000000000045
1.509206097,0.120000000000005,-0.200000000000045
1.519206391,0.120000000000005,-0.159999999999968
1.529206705,0.139999999999986,-0.139999999999986
1.539207018,0.159999999999968,-0.139999999999986
1.549207293,0.139999999999986,-0.159999999999968
1.559207586,0.100000000000023,-0.200000000000045
1.56920788,0.0599999999999454,-0.200000000000045
1.579208194,0.0599999999999454,-0.200000000000045
1.589208469,0.100000000000023,-0.200000000000045
1.599208763,0.17999999999995,-0.17999999999995
1.609209038,0.240000000000009,-0.139999999999986
1.619209352,0.240000000000009,-0.120000000000005
1.629209646,0.200000000000045,-0.139999999999986
1.63920994,0.100000000000023,-0.200000000000045
1.649210215,0.0399999999999636,-0.220000000000027
1.659210509,0.0199999999999818,-0.220000000000027
1.669210804,0.0800000000000409,-0.200000000000045
1.679211117,0.139999999999986,-0.17999999999995
1.689211411,0.17999999999995,-0.159999999999968
1.699211686,0.159999999999968,-0.159999999999968
1.70921198,0.139999999999986,-0.159999999999968
1.719212294,0.100000000000023,-0.159999999999968
1.729212607,0.100000000000023,-0.159999999999968
1.739212902,0.120000000000005,-0.159999999999968
1.749213196,0.139999999999986,-0.159999999999968
1.759213509,0.17999999999995,-0.17999999999995
1.769213823,0.159999999999968,-0.220000000000027
1.779214136,0.100000000000023,-0.240000000000009
1.789214429,0.0599999999999454,-0.259999999999991
1.799214685,0.0599999999999454,-0.240000000000009
1.809215005,0.100000000000023,-0.200000000000045
1.819215235,0.159999999999968,-0.139999999999986
1.829215485,0.17999999999995,-0.100000000000023
1.839215696,0.159999999999968,-0.0800000000000409
1.849215926,0.100000000000023,-0.100000000000023
1.859216195,0.0399999999999636,-0.159999999999968
1.869216444,0.0399999999999636,-0.220000000000027
1.879216674,0.0800000000000409,-0.240000000000009
1.889216905,0.159999999999968,-0.240000000000009
1.899217173,0.220000000000027,-0.200000000000045
1.909217423,0.220000000000027,-0.159999999999968
1.919217653,0.159999999999968,-0.120000000000005
1.929217883,0.0599999999999454,-0.120000000000005
1.939218114,0.0199999999999818,-0.139999999999986
1.949218363,0.0399999999999636,-0.159999999999968
1.959218632,0.120000000000005,-0.159999999999968
1.969218843,0.17999999999995,-0.120000000000005
1.979219092,0.200000000000045,-0.100000000000023
1.989219303,0.159999999999968,-0.100000000000023
1.999219572,0.100000000000023,-0.120000000000005
2.009219783,0.100000000000023,-0.120000000000005
2.019220052,0.0599999999999454,-0.139999999999986
2.029220224,0.0800000000000409,-0.139999999999986
2.039220474,0.120000000000005,-0.100000000000023
2.049220685,0.120000000000005,-0.100000000000023
2.059220934,0.159999999999968,-0.0599999999999454
2.069221126,0.100000000000023,-0.0800000000000409
2.079221375,0.0599999999999454,-0.0800000000000409
2.089221586,0.0599999999999454,-0.0800000000000409
2.099221873,0.0399999999999636,-0.0800000000000409
2.109222046,0.159999999999968,-0.100000000000023
2.119222295,0.200000000000045,-0.100000000000023
2.129222468,0.17999999999995,-0.0599999999999454
2.139222756,0.159999999999968,-0.0199999999999818
2.149222967,0.120000000000005,-0.0199999999999818
2.159223216,0.0800000000000409,-0.0399999999999636
2.169223408,0.0599999999999454,-0.100000000000023
2.179223657,0.0599999999999454,-0.0800000000000409
2.189223868,0.0800000000000409,-0.0199999999999818
2.199224156,0.120000000000005,0
2.209224348,0.139999999999986,0.0199999999999818
2.219224597,0.139999999999986,0
2.229224847,0.139999999999986,-0.0399999999999636
2.239225116,0.159999999999968,-0.0399999999999636
2.249225327,0.159999999999968,-0.0199999999999818
2.259225576,0.159999999999968,-0.0199999999999818
2.269225787,0.139999999999986,-0.0399999999999636
2.279226075,0.120000000000005,-0.0399999999999636
2.289226305,0.0800000000000409,-0.0399999999999636
2.299226555,0.0599999999999454,-0.0199999999999818
2.309226766,0.0599999999999454,-0.0399999999999636
2.319226996,0.0800000000000409,-0.0399999999999636
2.329227245,0.139999999999986,-0.0199999999999818
2.339227514,0.17999999999995,0.0199999999999818
2.349227744,0.200000000000045,0.0399999999999636
2.359227975,0.17999999999995,0.0399999999999636
2.369228186,0.120000000000005,0
2.379228454,0.0800000000000409,-0.0599999999999454
2.389228665,0.0800000000000409,-0.100000000000023
2.399228934,0.120000000000005,-0.0800000000000409
2.409229126,0.139999999999986,0
2.419229414,0.139999999999986,0.0599999999999454
2.429229644,0.120000000000005,0.100000000000023
2.439229893,0.0800000000000409,0.0800000000000409
2.449230104,0.0599999999999454,0.0399999999999636
2.459230335,0.0599999999999454,0
2.469230603,0.100000000000023,0
2.479230853,0.159999999999968,0.0399999999999636
2.489231083,0.220000000000027,0.0800000000000409
2.499231313,0.220000000000027,0.0800000000000409
2.509231524,0.159999999999968,0.0599999999999454
2.519231774,0.0599999999999454,0.0199999999999818
2.529232004,0.0199999999999818,0
2.539232234,0.0399999999999636,0
2.549232445,0.0800000000000409,0.0199999999999818
2.559232695,0.120000000000005,0.0800000000000409
2.569232925,0.159999999999968,0.100000000000023
2.579233155,0.139999999999986,0.100000000000023
2.589233366,0.120000000000005,0.0599999999999454
2.599233596,0.100000000000023,0
2.609233826,0.100000000000023,-0.0599999999999454
2.619234076,0.120000000000005,-0.0599999999999454
2.629234287,0.139999999999986,0
2.639234536,0.139999999999986,0.0199999999999818
2.649234728,0.120000000000005,0.0399999999999636
2.659234978,0.0599999999999454,0
2.669235208,0.0399999999999636,-0.0199999999999818
2.679235457,0.0399999999999636,-0.0399999999999636
2.689235649,0.0800000000000409,-0.0399999999999636
2.699235879,0.139999999999986,0
2.70923611,0.200000000000045,0.0199999999999818
2.719236359,0.200000000000045,0.0599999999999454
2.729236589,0.159999999999968,0.0800000000000409
2.739236799,0.100000000000023,0.0800000000000409
2.749237068,0.0800000000000409,0.0199999999999818
2.759237337,0.100000000000023,-0.0199999999999818
2.769237548,0.159999999999968,-0.0599999999999454
2.779237778,0.200000000000045,-0.0399999999999636
2.789237989,0.17999999999995,0.0199999999999818
2.799238277,0.120000000000005,0.100000000000023
2.809238494,0.0199999999999818,0.139999999999986
2.819238698,0,0.159999999999968
2.829238865,0.0199999999999818,0.139999999999986
2.839239051,0.139999999999986,0.120000000000005
2.849239256,0.259999999999991,0.100000000000023
2.85923948,0.299999999999955,0.0599999999999454
2.869239666,0.220000000000027,0.0199999999999818
2.879239851,0.0800000000000409,0
2.889240057,-0.0199999999999818,0
2.899240261,-0.0399999999999636,0
2.909240446,0,0
2.919240652,0.120000000000005,0
2.929240837,0.220000000000027,0.0599999999999454
2.939241043,0.220000000000027,0.100000000000023
2.949241247,0.159999999999968,0.0800000000000409
2.959241453,0.0599999999999454,0.0199999999999818
2.969241638,0,-0.0399999999999636
2.979241786,0,-0.0599999999999454
2.989242028,0.0199999999999818,-0.0399999999999636
2.999242215,0.100000000000023,0
3.009242419,0.139999999999986,0.0199999999999818
3.019242586,0.139999999999986,0.0199999999999818
3.029242771,0.100000000000023,0
3.039242977,0.0599999999999454,-0.0199999999999818
3.049243181,0.0599999999999454,-0.0800000000000409
3.059243329,0.0599999999999454,-0.100000000000023
3.069243514,0.0800000000000409,-0.0599999999999454
3.07924372,0.0800000000000409,0
3.089243924,0.0599999999999454,0.0599999999999454
3.099244091,0.0399999999999636,0.0599999999999454
3.109244257,0.0399999999999636,0
3.119244424,0.0399999999999636,-0.0800000000000409
3.129244648,0.0800000000000409,-0.100000000000023
3.139244834,0.100000000000023,-0.0399999999999636
3.149245019,0.139999999999986,0
3.159245167,0.120000000000005,0.0399999999999636
3.169245372,0.0800000000000409,0.0199999999999818
3.179245558,0.0199999999999818,0
3.189245762,0,-0.0399999999999636
3.199245909,0,-0.0399999999999636
3.209246115,0.0199999999999818,0
3.219246281,0.0599999999999454,0.0599999999999454
3.229246486,0.0800000000000409,0.100000000000023
3.239246633,0.100000000000023,0.100000000000023
3.249246857,0.0800000000000409,0.0599999999999454
3.259247023,0.0599999999999454,0
3.269247248,0.0399999999999636,-0.0399999999999636
3.279247433,0.0399999999999636,-0.0399999999999636
3.289247658,0.0599999999999454,0
3.299247824,0.0800000000000409,0
3.30924801,0.0800000000000409,0.0199999999999818
3.319248215,0.0599999999999454,0.0399999999999636
3.329248439,0.0599999999999454,0.0800000000000409
3.339248625,0.0800000000000409,0.0800000000000409
3.349248792,0.100000000000023,0.0399999999999636
3.359248958,0.100000000000023,0
3.369249202,0.0800000000000409,0.0199999999999818
3.379249387,0.0399999999999636,0.0599999999999454
3.389249592,0.0199999999999818,0.0399999999999636
3.399249758,0.0399999999999636,0
3.409249945,0.0399999999999636,-0.0599999999999454
3.419250168,0.0800000000000409,-0.0800000000000409
3.429250335,0.100000000000023,-0.0399999999999636
3.43925052,0.120000000000005,0
3.449250726,0.0800000000000409,0.0399999999999636
3.45925093,0,0.0399999999999636
3.469251135,-0.0199999999999818,-0.0199999999999818
3.479251321,0,-0.0800000000000409
3.489251526,0.0399999999999636,-0.100000000000023
3.499251673,0.100000000000023,-0.0800000000000409
3.509251916,0.139999999999986,-0.0199999999999818
3.519252102,0.120000000000005,0
3.529252326,0.0800000000000409,0.0199999999999818
3.539252474,0.0199999999999818,0
3.549252659,0,-0.0399999999999636
3.559252865,-0.0199999999999818,-0.0599999999999454
3.569253088,0.0199999999999818,-0.0800000000000409
3.579253255,0.0800000000000409,-0.0399999999999636
3.589253441,0.139999999999986,0
3.599253608,0.139999999999986,0
3.609253831,0.100000000000023,0
3.619253998,0.0199999999999818,-0.0199999999999818
3.629254183,0,-0.0399999999999636
3.639254331,0,-0.0599999999999454
3.649254555,0.0199999999999818,-0.0599999999999454
3.659254741,0.0599999999999454,-0.0399999999999636
3.669254926,0.0800000000000409,-0.0199999999999818
3.679255093,0.0599999999999454,-0.0199999999999818
3.689255279,0.0199999999999818,-0.0399999999999636
3.699255465,0,-0.0399999999999636
3.709255669,0,-0.0399999999999636
3.719255836,0.0199999999999818,-0.0199999999999818
3.729256022,0.0599999999999454,0
3.739256189,0.0800000000000409,0
3.749256393,0.0800000000000409,0
3.759256559,0.0399999999999636,-0.0199999999999818
3.769256745,0,-0.0399999999999636
3.77925693,0,-0.0599999999999454
3.789257136,0.0199999999999818,-0.0199999999999818
3.799257359,0.0599999999999454,0.0199999999999818
3.809257534,0.0599999999999454,0.0399999999999636
3.819257709,0.0199999999999818,0.0399999999999636
3.829257865,-0.0199999999999818,0
3.839258079,-0.0199999999999818,-0.0199999999999818
3.849258254,0,-0.0599999999999454
3.859258468,0.0199999999999818,-0.0599999999999454
3.869258604,0.0599999999999454,-0.0399999999999636
3.87925878,0.0800000000000409,-0.0199999999999818
3.889258992,0.0800000000000409,0
3.899259187,0.0399999999999636,0
3.909259362,0,-0.0199999999999818
3.919259537,-0.0199999999999818,-0.0800000000000409
3.929259732,-0.0199999999999818,-0.0800000000000409
3.939259945,0,-0.0199999999999818
3.949260121,0.0399999999999636,0.0399999999999636
3.959260296,0.0599999999999454,0.100000000000023
3.969260471,0.0599999999999454,0.100000000000023
3.979260685,0.0399999999999636,0.0399999999999636
3.989260879,0.0399999999999636,0
3.999261054,0.0399999999999636,0
4.009261229,0.0399999999999636,0
4.019261385,0.0399999999999636,0.0399999999999636
4.029261618,0.0399999999999636,0.0399999999999636
4.039261774,0.0399999999999636,0.0800000000000409
4.049261987,0.0399999999999636,0.0800000000000409
4.059262143,0.0399999999999636,0.0399999999999636
4.069262319,0.0399999999999636,0
4.079262513,0.0399999999999636,0
4.089262708,0.0399999999999636,0
4.099262902,0.0399999999999636,0.120000000000005
4.109263076,0.0399999999999636,0.139999999999986
4.119263232,0.0199999999999818,0.120000000000005
4.129263446,0,0.0599999999999454
4.139263602,0,0
4.149263777,0,0
4.159263914,0.0399999999999636,0.0199999999999818
4.169264128,0.0599999999999454,0.0599999999999454
4.179264303,0.0800000000000409,0.100000000000023
4.189264478,0.0800000000000409,0.100000000000023
4.199264634,0.0399999999999636,0.0599999999999454
4.209264809,0.0199999999999818,0.0199999999999818
4.219264984,0.0199999999999818,0.0199999999999818
4.229265178,0,0
4.239265334,0,0
4.249265509,0.0399999999999636,0.100000000000023
4.259265684,0.0599999999999454,0.120000000000005
4.269265879,0.0399999999999636,0.0800000000000409
4.279266035,0.0199999999999818,0.0199999999999818
4.28926621,0,0
4.299266366,0.0199999999999818,0
4.309266561,0.0399999999999636,0.0800000000000409
4.319266736,0.0599999999999454,0.139999999999986
4.32926691,0.0800000000000409,0.159999999999968
4.339267066,0.0599999999999454,0.159999999999968
4.34926728,0.0399999999999636,0.139999999999986
4.359267455,0.0199999999999818,0.100000000000023
4.369267669,0,0.0800000000000409
4.379267825,0,0.0800000000000409
4.389268019,0.0199999999999818,0.100000000000023
4.399268156,0.0399999999999636,0.139999999999986
4.409268408,0.0399999999999636,0.200000000000045
4.419268564,0.0399999999999636,0.200000000000045
4.429268778,0.0599999999999454,0.17999999999995
4.439268914,0.0599999999999454,0.139999999999986
4.449269146,0.0399999999999636,0.159999999999968
4.459269322,0.0199999999999818,0.240000000000009
4.469269535,0.0199999999999818,0.279999999999973
4.479269653,0.0199999999999818,0.259999999999991
4.489269867,0,0.200000000000045
4.499270042,0,0.159999999999968
4.509270275,0,0.159999999999968
4.519270412,0.0199999999999818,0.220000000000027
4.529270606,0.0599999999999454,0.259999999999991
4.539270743,0.0599999999999454,0.279999999999973
4.549270994,0.0399999999999636,0.279999999999973
4.55927115,0.0199999999999818,0.240000000000009
4.569271364,0.0199999999999818,0.200000000000045
4.5792715,0.0399999999999636,0.159999999999968
4.589271753,0.0599999999999454,0.139999999999986
4.599271909,0.0599999999999454,0.159999999999968
4.609272122,0.0800000000000409,0.200000000000045
4.619272259,0.0399999999999636,0.259999999999991
4.629272492,0,0.240000000000009
4.639272629,-0.0399999999999636,0.17999999999995
4.649272881,-0.0599999999999454,0.139999999999986
4.659273017,-0.0199999999999818,0.120000000000005
4.66927323,0.0399999999999636,0.159999999999968
4.679273367,0.120000000000005,0.220000000000027
4.6892736,0.139999999999986,0.240000000000009
4.699273737,0.120000000000005,0.200000000000045
4.70927397,0.0399999999999636,0.120000000000005
4.719274087,-0.0199999999999818,0.0800000000000409
4.729274282,-0.0599999999999454,0.0599999999999454
4.739274457,-0.0399999999999636,0.0800000000000409
4.749274671,0,0.100000000000023
4.759274788,0.0399999999999636,0.159999999999968
4.769275001,0.0599999999999454,0.17999999999995
4.779275157,0.0399999999999636,0.159999999999968
4.789275371,0,0.0800000000000409
4.799275507,-0.0199999999999818,0.0199999999999818
4.809275709,0,0
4.819275859,0.0199999999999818,0.0399999999999636
4.829276085,0.0599999999999454,0.100000000000023
4.839276254,0.0800000000000409,0.139999999999986
4.849276462,0.0599999999999454,0.120000000000005
4.859276611,0,0.0800000000000409
4.869276819,-0.0199999999999818,0.0599999999999454
4.879276988,-0.0199999999999818,0.100000000000023
4.889277215,0,0.159999999999968
4.899277364,0.0399999999999636,0.17999999999995
4.909277573,0.0800000000000409,0.200000000000045
4.919277742,0.0800000000000409,0.17999999999995
4.929277988,0.0599999999999454,0.159999999999968
4.939278157,0.0399999999999636,0.139999999999986
4.949278364,0.0199999999999818,0.159999999999968
4.959278533,0,0.200000000000045
4.96927876,0,0.240000000000009
4.979278967,0.0199999999999818,0.220000000000027
4.989279175,0.0199999999999818,0.17999999999995
4.999279325,0,0.100000000000023
5.009279513,-0.0199999999999818,0.0800000000000409
5.01927974,-0.0199999999999818,0.120000000000005
5.029279947,0,0.220000000000027
5.039280135,0.0399999999999636,0.279999999999973
5.049280324,0.0599999999999454,0.279999999999973
5.059280493,0.0399999999999636,0.220000000000027
5.069280739,0,0.159999999999968
5.079280928,-0.0199999999999818,0.100000000000023
5.089281135,-0.0599999999999454,0.0800000000000409
5.099281304,-0.0199999999999818,0.100000000000023
5.109281492,0.0199999999999818,0.139999999999986
5.1192817,0.100000000000023,0.200000000000045
5.129281888,0.120000000000005,0.220000000000027
5.139282095,0.0800000000000409,0.200000000000045
5.149282284,0,0.139999999999986
5.159282491,-0.0399999999999636,0.100000000000023
5.169282699,-0.0399999999999636,0.100000000000023
5.179282906,-0.0199999999999818,0.139999999999986
5.189283076,0,0.200000000000045
5.199283245,0.0199999999999818,0.220000000000027
5.209283491,0.0199999999999818,0.220000000000027
5.219283679,0.0199999999999818,0.159999999999968
5.229283887,0,0.120000000000005
5.239284056,0,0.0800000000000409
5.249284244,0,0.120000000000005
5.259284471,0.0199999999999818,0.159999999999968
5.269284678,0.0199999999999818,0.220000000000027
5.279284828,0,0.220000000000027
5.289285016,0,0.200000000000045
5.299285204,0,0.159999999999968
5.309285412,0,0.139999999999986
5.319285562,0.0199999999999818,0.159999999999968
5.329285751,0.0199999999999818,0.200000000000045
5.33928592,0,0.220000000000027
5.349286146,-0.0199999999999818,0.220000000000027
5.359286335,-0.0599999999999454,0.200000000000045
5.369286504,-0.0399999999999636,0.200000000000045
5.379286692,0,0.17999999999995
5.38928688,0.0599999999999454,0.200000000000045
5.399287068,0.0800000000000409,0.220000000000027
5.409287276,0.0199999999999818,0.259999999999991
5.419287445,-0.0199999999999818,0.279999999999973
5.429287633,-0.0800000000000409,0.259999999999991
5.439287783,-0.0800000000000409,0.200000000000045
5.44928801,0,0.159999999999968
5.459288198,0.0800000000000409,0.139999999999986
5.469288386,0.139999999999986,0.200000000000045
5.479288556,0.159999999999968,0.259999999999991
5.489288763,0.0800000000000409,0.299999999999955
5.499288952,-0.0199999999999818,0.299999999999955
5.50928914,-0.0800000000000409,0.220000000000027
5.519289328,-0.0599999999999454,0.159999999999968
5.529289516,0,0.159999999999968
5.539289743,0.0599999999999454,0.200000000000045
5.549289951,0.100000000000023,0.240000000000009
5.559290139,0.100000000000023,0.279999999999973
5.569290327,0.0599999999999454,0.32000000000005
5.579290496,0,0.32000000000005
5.589290742,-0.0199999999999818,0.32000000000005
5.59929093,0,0.279999999999973
5.609291138,0,0.240000000000009
5.619291308,0.0199999999999818,0.240000000000009
5.629291496,0.0199999999999818,0.240000000000009
5.639291703,0,0.259999999999991
5.649291911,0,0.259999999999991
5.659292118,-0.0199999999999818,0.259999999999991
5.669292306,0,0.259999999999991
5.679292514,0.0199999999999818,0.299999999999955
5.689292721,0.0399999999999636,0.340000000000032
5.699292929,0.0199999999999818,0.340000000000032
5.709293117,0,0.32000000000005
5.719293286,-0.0199999999999818,0.279999999999973
5.729293513,-0.0199999999999818,0.259999999999991
5.739293739,0,0.240000000000009
5.749293908,0.0599999999999454,0.240000000000009
5.759294098,0.100000000000023,0.279999999999973
5.769294267,0.100000000000023,0.32000000000005
5.779294513,0.0599999999999454,0.340000000000032
5.789294701,0,0.340000000000032
5.799294908,-0.0399999999999636,0.299999999999955
5.809295081,-0.0599999999999454,0.279999999999973
5.819295288,-0.0399999999999636,0.299999999999955
5.829295514,0,0.340000000000032
5.839295759,0.0199999999999818,0.399999999999977
5.849295965,0.0800000000000409,0.419999999999959
5.859296172,0.100000000000023,0.379999999999995
5.869296398,0.0800000000000409,0.32000000000005
5.879296624,0.0399999999999636,0.259999999999991
5.88929685,0.0199999999999818,0.240000000000009
5.899297056,0,0.259999999999991
5.909297244,-0.0199999999999818,0.32000000000005
5.919297469,-0.0399999999999636,0.419999999999959
5.929297675,-0.0199999999999818,0.460000000000036
5.939297883,0,0.440000000000055
5.94929807,0.0599999999999454,0.360000000000014
5.959298277,0.100000000000023,0.279999999999973
5.969298483,0.0800000000000409,0.279999999999973
5.979298709,0.0199999999999818,0.340000000000032
5.989298897,-0.0399999999999636,0.419999999999959
5.999299103,-0.0800000000000409,0.440000000000055
6.009299291,-0.0800000000000409,0.399999999999977
6.019299516,-0.0399999999999636,0.360000000000014
6.029299723,0.0199999999999818,0.32000000000005
6.03929993,0.0800000000000409,0.340000000000032
6.049300117,0.100000000000023,0.379999999999995
6.059300362,0.0399999999999636,0.379999999999995
6.069300549,-0.0399999999999636,0.379999999999995
6.079300756,-0.100000000000023,0.360000000000014
6.089300963,-0.100000000000023,0.340000000000032
6.09930115,-0.0199999999999818,0.340000000000032
6.109301357,0.0599999999999454,0.340000000000032
6.119301602,0.120000000000005,0.360000000000014
6.129301789,0.100000000000023,0.379999999999995
6.139301996,0.0199999999999818,0.399999999999977
6.149302164,-0.0599999999999454,0.399999999999977
6.159302428,-0.139999999999986,0.379999999999995
6.169302635,-0.120000000000005,0.360000000000014
6.17930288,-0.0399999999999636,0.360000000000014
6.189303048,0.0399999999999636,0.399999999999977
6.199303255,0.100000000000023,0.460000000000036
6.209303499,0.100000000000023,0.480000000000018
6.219303726,0.0399999999999636,0.480000000000018
6.229303932,-0.0199999999999818,0.440000000000055
6.239304139,-0.0399999999999636,0.419999999999959
6.249304384,-0.0599999999999454,0.419999999999959
6.259304609,-0.0399999999999636,0.460000000000036
6.269304817,-0.0199999999999818,0.539999999999964
6.279305023,0.0199999999999818,0.580000000000041
6.28930523,0.0399999999999636,0.559999999999945
6.299305456,0.0199999999999818,0.519999999999982
6.3093057,-0.0199999999999818,0.480000000000018
6.319305908,-0.0399999999999636,0.5
6.329306114,-0.0399999999999636,0.559999999999945
6.339306302,0,0.580000000000041
6.349306546,0,0.580000000000041
6.359306753,0,0.559999999999945
6.369306998,-0.0199999999999818,0.539999999999964
6.379307166,-0.0399999999999636,0.519999999999982
6.389307372,-0.0399999999999636,0.519999999999982
6.399307618,-0.0399999999999636,0.539999999999964
6.409307844,-0.0199999999999818,0.580000000000041
6.419308051,0,0.600000000000023
6.429308257,0,0.620000000000005
6.439308482,0,0.580000000000041
6.449308728,-0.0199999999999818,0.539999999999964
6.459308934,-0.0399999999999636,0.5
6.469309142,-0.0199999999999818,0.480000000000018
6.479309329,0,0.5
6.489309593,0,0.539999999999964
6.4993098,0,0.559999999999945
6.509310025,-0.0199999999999818,0.559999999999945
6.519310194,-0.0399999999999636,0.539999999999964
6.529310419,-0.0399999999999636,0.5
6.539310626,-0.0199999999999818,0.480000000000018
6.549310852,0,0.480000000000018
6.559311039,0.0199999999999818,0.519999999999982
6.569311246,0.0199999999999818,0.580000000000041
6.579311433,0.0199999999999818,0.620000000000005
6.589311659,0,0.580000000000041
6.599311847,-0.0199999999999818,0.519999999999982
6.609312053,-0.0199999999999818,0.480000000000018
6.61931224,0,0.480000000000018
6.629312467,0,0.539999999999964
6.639312673,0.0199999999999818,0.559999999999945
6.64931288,0,0.559999999999945
6.659313067,-0.0199999999999818,0.559999999999945
6.669313273,-0.0399999999999636,0.559999999999945
6.67931348,-0.0199999999999818,0.559999999999945
6.689313725,0,0.559999999999945
6.699313894,0.0599999999999454,0.559999999999945
6.7093141,0.0599999999999454,0.559999999999945
6.719314287,0.0199999999999818,0.559999999999945
6.729314533,-0.0399999999999636,0.539999999999964
6.73931472,-0.100000000000023,0.5
6.749314927,-0.100000000000023,0.460000000000036
6.759315133,-0.0399999999999636,0.480000000000018
6.769315359,0.0199999999999818,0.559999999999945
6.779315566,0.0599999999999454,0.600000000000023
6.789315772,0.0599999999999454,0.620000000000005
6.799315961,0.0199999999999818,0.580000000000041
6.809316258,0,0.539999999999964
6.819316535,-0.0199999999999818,0.519999999999982
6.82931685,0,0.5
6.839317127,0.0399999999999636,0.519999999999982
6.849317423,0.0399999999999636,0.539999999999964
6.859317643,0,0.580000000000041
6.869317997,-0.0199999999999818,0.639999999999986
6.879318255,-0.0399999999999636,0.659999999999968
6.88931859,0,0.600000000000023
6.899318809,0.0399999999999636,0.539999999999964
6.909319106,0.120000000000005,0.539999999999964
6.919319402,0.139999999999986,0.580000000000041
6.929319718,0.100000000000023,0.639999999999986
6.939319976,0,0.639999999999986
6.949320273,-0.0599999999999454,0.620000000000005
6.959320569,-0.100000000000023,0.580000000000041
6.969320885,-0.0599999999999454,0.559999999999945
6.979321143,0,0.559999999999945
6.989321439,0.0599999999999454,0.580000000000041
6.999321697,0.0800000000000409,0.600000000000023
7.009322032,0.0599999999999454,0.600000000000023
7.019322289,0,0.580000000000041
7.029322605,0,0.559999999999945
7.039322863,0,0.559999999999945
7.04932314,0.0199999999999818,0.559999999999945
7.059323436,0.0599999999999454,0.559999999999945
7.069323733,0.0800000000000409,0.559999999999945
7.079324029,0.0599999999999454,0.559999999999945
7.089324307,0.0599999999999454,0.539999999999964
7.099324545,0.0399999999999636,0.5
7.10932488,0.0199999999999818,0.480000000000018
7.119325158,0.0199999999999818,0.5
7.129325454,0.0199999999999818,0.539999999999964
7.139325712,0.0399999999999636,0.580000000000041
7.149326047,0.0399999999999636,0.600000000000023
7.159326324,0.0399999999999636,0.600000000000023
7.169326621,0.0399999999999636,0.580000000000041
7.179326879,0.0599999999999454,0.539999999999964
7.189327156,0.100000000000023,0.5
7.199327471,0.100000000000023,0.480000000000018
7.209327748,0.0800000000000409,0.460000000000036
7.219328006,0.0399999999999636,0.480000000000018
7.229328264,0,0.519999999999982
7.23932856,0,0.539999999999964
7.249328818,0.0599999999999454,0.519999999999982
7.259329134,0.120000000000005,0.519999999999982
7.269329373,0.17999999999995,0.519999999999982
7.279329669,0.17999999999995,0.539999999999964
7.289329908,0.100000000000023,0.519999999999982
7.299330224,0.0199999999999818,0.519999999999982
7.309330501,-0.0199999999999818,0.5
7.319330778,0,0.480000000000018
7.329331036,0.0599999999999454,0.480000000000018
7.339331333,0.159999999999968,0.480000000000018
7.34933161,0.240000000000009,0.5
7.359331887,0.240000000000009,0.480000000000018
7.369332145,0.159999999999968,0.480000000000018
7.379332421,0.0399999999999636,0.5
7.389332698,0,0.519999999999982
7.399333014,0,0.539999999999964
7.409333253,0.0800000000000409,0.580000000000041
7.41933353,0.17999999999995,0.600000000000023
7.429333788,0.240000000000009,0.600000000000023
7.439334085,0.220000000000027,0.600000000000023
7.449334362,0.159999999999968,0.559999999999945
7.459334639,0.100000000000023,0.539999999999964
7.469334897,0.0599999999999454,0.539999999999964
7.479335213,0.0599999999999454,0.580000000000041
7.48933549,0.120000000000005,0.620000000000005
7.499335786,0.200000000000045,0.620000000000005
7.509336044,0.259999999999991,0.580000000000041
7.519336341,0.259999999999991,0.5
7.529336618,0.240000000000009,0.460000000000036
7.539336953,0.17999999999995,0.480000000000018
7.549337211,0.159999999999968,0.519999999999982
7.559337508,0.139999999999986,0.580000000000041
7.569337726,0.159999999999968,0.580000000000041
7.57933808,0.17999999999995,0.539999999999964
7.589338338,0.200000000000045,0.440000000000055
7.599338673,0.200000000000045,0.379999999999995
7.609338893,0.200000000000045,0.340000000000032
7.619339189,0.220000000000027,0.360000000000014
7.629339486,0.220000000000027,0.399999999999977
7.639339801,0.220000000000027,0.440000000000055
7.649340059,0.220000000000027,0.419999999999959
7.659340356,0.220000000000027,0.360000000000014
7.669340595,0.220000000000027,0.32000000000005
7.679340949,0.220000000000027,0.279999999999973
7.689341168,0.220000000000027,0.259999999999991
7.699341503,0.200000000000045,0.259999999999991
7.709341742,0.200000000000045,0.299999999999955
7.719342077,0.200000000000045,0.32000000000005
7.729342335,0.200000000000045,0.299999999999955
7.73934267,0.200000000000045,0.259999999999991
7.749342908,0.200000000000045,0.200000000000045
7.759343204,0.240000000000009,0.139999999999986
7.769343481,0.259999999999991,0.139999999999986
7.779343816,0.259999999999991,0.159999999999968
7.789344055,0.240000000000009,0.17999999999995
7.799344371,0.200000000000045,0.17999999999995
7.809344583,0.17999999999995,0.17999999999995
7.819344877,0.200000000000045,0.17999999999995
7.829345076,0.220000000000027,0.139999999999986
7.839345332,0.240000000000009,0.139999999999986
7.849345512,0.259999999999991,0.139999999999986
7.859345767,0.259999999999991,0.139999999999986
7.869345966,0.240000000000009,0.139999999999986
7.879346222,0.240000000000009,0.120000000000005
7.889346402,0.240000000000009,0.0800000000000409
7.899346658,0.240000000000009,0.0599999999999454
7.909346857,0.259999999999991,0.0800000000000409
7.919347112,0.279999999999973,0.120000000000005
7.929347273,0.259999999999991,0.139999999999986
7.939347529,0.240000000000009,0.139999999999986
7.949347708,0.220000000000027,0.100000000000023
7.959347964,0.200000000000045,0.0599999999999454
7.969348162,0.17999999999995,0.0599999999999454
7.979348399,0.17999999999995,0.0800000000000409
7.989348578,0.17999999999995,0.100000000000023
7.999348816,0.200000000000045,0.139999999999986
8.009349014,0.200000000000045,0.139999999999986
8.01934929,0.200000000000045,0.139999999999986
8.029349449,0.200000000000045,0.100000000000023
8.039349687,0.220000000000027,0.0800000000000409
8.049349865,0.279999999999973,0.0800000000000409
8.059350141,0.279999999999973,0.0800000000000409
8.06935032,0.259999999999991,0.120000000000005
8.079350558,0.200000000000045,0.139999999999986
8.089350736,0.120000000000005,0.120000000000005
8.099351012,0.100000000000023,0.100000000000023
8.109351191,0.139999999999986,0.0800000000000409
8.119351448,0.200000000000045,0.0800000000000409
8.129351607,0.279999999999973,0.139999999999986
8.139351864,0.299999999999955,0.200000000000045
8.149352043,0.279999999999973,0.220000000000027
8.159352318,0.200000000000045,0.200000000000045
8.169352478,0.139999999999986,0.139999999999986
8.179352753,0.120000000000005,0.0800000000000409
8.189352933,0.120000000000005,0.0399999999999636
8.199353208,0.159999999999968,0.0599999999999454
8.209353426,0.17999999999995,0.139999999999986
8.219353682,0.17999999999995,0.139999999999986
8.229353842,0.200000000000045,0.200000000000045
8.239354098,0.17999999999995,0.159999999999968
8.249354316,0.159999999999968,0.139999999999986
8.259354553,0.159999999999968,0.139999999999986
8.269354752,0.17999999999995,0.200000000000045
8.279354988,0.17999999999995,0.220000000000027
8.289355226,0.159999999999968,0.220000000000027
8.299355481,0.159999999999968,0.220000000000027
8.30935568,0.120000000000005,0.200000000000045
8.319355917,0.100000000000023,0.159999999999968
8.329356095,0.139999999999986,0.139999999999986
8.339356391,0.17999999999995,0.17999999999995
8.349356569,0.17999999999995,0.17999999999995
8.359356845,0.159999999999968,0.259999999999991
8.369357024,0.159999999999968,0.259999999999991
8.379357262,0.120000000000005,0.259999999999991
8.389357479,0.0800000000000409,0.259999999999991
8.399357735,0.139999999999986,0.17999999999995
8.409357953,0.200000000000045,0.200000000000045
8.41935819,0.220000000000027,0.220000000000027
8.42935835,0.220000000000027,0.220000000000027
8.439358645,0.139999999999986,0.279999999999973
8.449358843,0.0800000000000409,0.279999999999973
8.459359119,0.0599999999999454,0.259999999999991
8.469359278,0.0800000000000409,0.240000000000009
8.479359573,0.159999999999968,0.240000000000009
8.489359771,0.200000000000045,0.279999999999973
8.499360047,0.220000000000027,0.32000000000005
8.509360207,0.17999999999995,0.360000000000014
8.519360463,0.139999999999986,0.360000000000014
8.529360681,0.100000000000023,0.32000000000005
8.539360937,0.120000000000005,0.259999999999991
8.549361136,0.159999999999968,0.259999999999991
8.559361372,0.159999999999968,0.259999999999991
8.569361552,0.159999999999968,0.299999999999955
8.579361846,0.159999999999968,0.299999999999955
8.589362026,0.0800000000000409,0.299999999999955
8.599362301,0.0800000000000409,0.279999999999973
8.60936248,0.120000000000005,0.259999999999991
8.619362717,0.17999999999995,0.279999999999973
8.629362935,0.220000000000027,0.279999999999973
8.639363191,0.220000000000027,0.259999999999991
8.649363371,0.17999999999995,0.220000000000027
8.659363588,0.139999999999986,0.17999999999995
8.669363806,0.100000000000023,0.159999999999968
8.679364062,0.100000000000023,0.139999999999986
8.68936424,0.139999999999986,0.159999999999968
8.699364459,0.17999999999995,0.200000000000045
8.709364657,0.159999999999968,0.220000000000027
8.719364913,0.120000000000005,0.259999999999991
8.729365131,0.100000000000023,0.259999999999991
8.739365349,0.100000000000023,0.240000000000009
8.749365528,0.139999999999986,0.17999999999995
8.759365765,0.200000000000045,0.159999999999968
8.769365982,0.240000000000009,0.200000000000045
8.77936622,0.220000000000027,0.240000000000009
8.789366399,0.159999999999968,0.259999999999991
8.799366636,0.100000000000023,0.240000000000009
8.809366785,0.0800000000000409,0.200000000000045
8.819367004,0.120000000000005,0.17999999999995
8.829367187,0.17999999999995,0.200000000000045
8.839367368,0.220000000000027,0.240000000000009
8.84936753,0.200000000000045,0.279999999999973
8.85936773,0.139999999999986,0.259999999999991
8.869367912,0.100000000000023,0.240000000000009
8.879368093,0.0800000000000409,0.220000000000027
8.889368255,0.120000000000005,0.17999999999995
8.899368436,0.17999999999995,0.139999999999986
8.909368617,0.200000000000045,0.159999999999968
8.919368837,0.200000000000045,0.200000000000045
8.929368981,0.159999999999968,0.240000000000009
8.939369181,0.100000000000023,0.259999999999991
8.949369362,0.0800000000000409,0.259999999999991
8.959369582,0.100000000000023,0.220000000000027
8.969369763,0.139999999999986,0.200000000000045
8.979369964,0.17999999999995,0.220000000000027
8.989370126,0.200000000000045,0.259999999999991
8.999370307,0.159999999999968,0.279999999999973
9.009370527,0.120000000000005,0.279999999999973
9.019370727,0.100000000000023,0.279999999999973
9.029370909,0.100000000000023,0.259999999999991
9.039371091,0.139999999999986,0.240000000000009
9.049371291,0.17999999999995,0.220000000000027
9.059371511,0.17999999999995,0.240000000000009
9.069371692,0.159999999999968,0.240000000000009
9.079371873,0.100000000000023,0.240000000000009
9.089372055,0.0800000000000409,0.240000000000009
9.099372255,0.0800000000000409,0.259999999999991
9.109372475,0.120000000000005,0.279999999999973
9.119372656,0.17999999999995,0.279999999999973
9.129372838,0.220000000000027,0.279999999999973
9.139373,0.220000000000027,0.259999999999991
9.14937322,0.17999999999995,0.240000000000009
9.159373401,0.100000000000023,0.240000000000009
9.169373621,0.0399999999999636,0.240000000000009
9.179373783,0.0399999999999636,0.279999999999973
9.189373964,0.0800000000000409,0.32000000000005
9.199374164,0.159999999999968,0.360000000000014
9.209374365,0.200000000000045,0.360000000000014
9.219374565,0.200000000000045,0.340000000000032
9.229374748,0.159999999999968,0.299999999999955
9.23937489,0.120000000000005,0.279999999999973
9.249375129,0.0800000000000409,0.259999999999991
9.259375291,0.0599999999999454,0.299999999999955
9.269375492,0.0800000000000409,0.340000000000032
9.279375654,0.100000000000023,0.360000000000014
9.289375873,0.120000000000005,0.379999999999995
9.299376074,0.139999999999986,0.360000000000014
9.309376274,0.159999999999968,0.32000000000005
9.319376417,0.159999999999968,0.279999999999973
9.329376599,0.159999999999968,0.279999999999973
9.339376819,0.120000000000005,0.279999999999973
9.34937702,0.0800000000000409,0.279999999999973
9.359377201,0.0599999999999454,0.279999999999973
9.369377382,0.0599999999999454,0.279999999999973
9.379377544,0.100000000000023,0.299999999999955
9.389377783,0.139999999999986,0.32000000000005
9.399377964,0.159999999999968,0.340000000000032
9.409378165,0.139999999999986,0.340000000000032
9.419378307,0.120000000000005,0.340000000000032
9.429378509,0.0800000000000409,0.32000000000005
9.439378671,0.0800000000000409,0.32000000000005
9.44937891,0.120000000000005,0.32000000000005
9.459379033,0.17999999999995,0.32000000000005
9.469379234,0.200000000000045,0.32000000000005
9.479379396,0.17999999999995,0.340000000000032
9.489379635,0.139999999999986,0.340000000000032
9.499379758,0.0800000000000409,0.340000000000032
9.509379978,0.0399999999999636,0.340000000000032
9.519380101,0.0399999999999636,0.379999999999995
9.529380341,0.0800000000000409,0.440000000000055
9.539380503,0.139999999999986,0.519999999999982
9.549380704,0.17999999999995,0.539999999999964
9.559380827,0.17999999999995,0.519999999999982
9.569381047,0.120000000000005,0.460000000000036
9.579381209,0.0599999999999454,0.399999999999977
9.589381429,0.0199999999999818,0.419999999999959
9.599381552,0.0399999999999636,0.460000000000036
9.609381772,0.0599999999999454,0.5
9.619381915,0.120000000000005,0.519999999999982
9.629382135,0.139999999999986,0.519999999999982
9.639382297,0.120000000000005,0.539999999999964
9.649382517,0.0800000000000409,0.580000000000041
9.659382641,0.0399999999999636,0.620000000000005
9.669382841,0.0399999999999636,0.639999999999986
9.679383003,0.0599999999999454,0.639999999999986
9.689383204,0.100000000000023,0.639999999999986
9.699383346,0.139999999999986,0.620000000000005
9.709383547,0.139999999999986,0.580000000000041
9.719383709,0.139999999999986,0.539999999999964
9.729383968,0.100000000000023,0.519999999999982
9.739384092,0.0599999999999454,0.559999999999945
9.74938433,0.0599999999999454,0.620000000000005
9.759384473,0.100000000000023,0.659999999999968
9.769384731,0.120000000000005,0.67999999999995
9.779384855,0.120000000000005,0.659999999999968
9.789385113,0.139999999999986,0.639999999999986
9.799385256,0.139999999999986,0.639999999999986
9.809385456,0.139999999999986,0.639999999999986
9.819385591,0.139999999999986,0.659999999999968
9.829385841,0.120000000000005,0.659999999999968
9.839385976,0.120000000000005,0.659999999999968
9.849386208,0.120000000000005,0.639999999999986
9.859386323,0.139999999999986,0.620000000000005
9.869386574,0.159999999999968,0.600000000000023
9.879386708,0.17999999999995,0.600000000000023
9.889386939,0.200000000000045,0.620000000000005
9.899387074,0.17999999999995,0.67999999999995
9.909387305,0.139999999999986,0.700000000000045
9.91938744,0.120000000000005,0.720000000000027
9.92938769,0.139999999999986,0.700000000000045
9.939387825,0.17999999999995,0.639999999999986
9.949388057,0.240000000000009,0.600000000000023
9.959388172,0.279999999999973,0.580000000000041
9.969388442,0.259999999999991,0.580000000000041
9.979388557,0.17999999999995,0.620000000000005
9.989388807,0.100000000000023,0.659999999999968
9.999388923,0.0399999999999636,0.700000000000045
10.009389173,0.0599999999999454,0.720000000000027
10.019389288,0.139999999999986,0.700000000000045
10.029389539,0.240000000000009,0.659999999999968
10.039389673,0.299999999999955,0.639999999999986
10.049389867,0.279999999999973,0.600000000000023
10.059389982,0.200000000000045,0.600000000000023
10.069390271,0.139999999999986,0.600000000000023
10.079390387,0.100000000000023,0.600000000000023
10.089390617,0.120000000000005,0.620000000000005
10.099390733,0.159999999999968,0.659999999999968
10.109390983,0.220000000000027,0.700000000000045
10.119391118,0.240000000000009,0.700000000000045
10.129391349,0.220000000000027,0.700000000000045
10.139391484,0.17999999999995,0.67999999999995
10.149391735,0.17999999999995,0.67999999999995
10.15939187,0.220000000000027,0.720000000000027
10.1693921,0.279999999999973,0.740000000000009
10.179392235,0.279999999999973,0.720000000000027
10.189392428,0.240000000000009,0.700000000000045
10.199392562,0.159999999999968,0.67999999999995
10.209392832,0.120000000000005,0.659999999999968
10.219392967,0.139999999999986,0.659999999999968
10.229393178,0.200000000000045,0.659999999999968
10.239393313,0.259999999999991,0.700000000000045
10.249393526,0.259999999999991,0.740000000000009
10.259393661,0.259999999999991,0.779999999999973
10.269393891,0.220000000000027,0.759999999999991
10.279394007,0.200000000000045,0.720000000000027
10.289394199,0.220000000000027,0.639999999999986
10.299394353,0.259999999999991,0.559999999999945
10.309394584,0.259999999999991,0.539999999999964
10.3193947,0.200000000000045,0.580000000000041
10.329394892,0.139999999999986,0.639999999999986
10.339395066,0.100000000000023,0.700000000000045
10.349395278,0.139999999999986,0.720000000000027
10.359395394,0.220000000000027,0.700000000000045
10.369395586,0.32000000000005,0.67999999999995
10.379395721,0.399999999999977,0.67999999999995
10.389395952,0.379999999999995,0.659999999999968
10.399396106,0.279999999999973,0.659999999999968
10.409396298,0.159999999999968,0.659999999999968
10.419396433,0.139999999999986,0.659999999999968
10.429396626,0.200000000000045,0.659999999999968
10.43939676,0.299999999999955,0.639999999999986
10.449397012,0.340000000000032,0.639999999999986
10.459397127,0.32000000000005,0.659999999999968
10.46939732,0.240000000000009,0.67999999999995
10.479397435,0.159999999999968,0.67999999999995
10.489397685,0.139999999999986,0.67999999999995
10.49939782,0.17999999999995,0.67999999999995
10.509398013,0.259999999999991,0.700000000000045
10.519398147,0.32000000000005,0.700000000000045
10.52939834,0.340000000000032,0.659999999999968
10.539398494,0.299999999999955,0.620000000000005
10.549398726,0.240000000000009,0.559999999999945
10.55939886,0.17999999999995,0.539999999999964
10.569399072,0.17999999999995,0.559999999999945
10.579399245,0.200000000000045,0.600000000000023
10.589399457,0.259999999999991,0.620000000000005
10.599399611,0.279999999999973,0.620000000000005
10.609399823,0.279999999999973,0.659999999999968
10.619399938,0.279999999999973,0.659999999999968
10.629400188,0.299999999999955,0.600000000000023
10.639400342,0.32000000000005,0.539999999999964
10.649400574,0.299999999999955,0.480000000000018
10.65940069,0.259999999999991,0.480000000000018
10.669400882,0.220000000000027,0.519999999999982
10.679401056,0.200000000000045,0.559999999999945
10.689401287,0.200000000000045,0.559999999999945
10.699401441,0.220000000000027,0.559999999999945
10.709401633,0.279999999999973,0.539999999999964
10.719401768,0.32000000000005,0.519999999999982
10.729402018,0.32000000000005,0.519999999999982
10.739402153,0.279999999999973,0.519999999999982
10.749402385,0.220000000000027,0.519999999999982
10.759402519,0.200000000000045,0.559999999999945
10.76940277,0.220000000000027,0.559999999999945
10.779402904,0.259999999999991,0.519999999999982
10.789403135,0.299999999999955,0.5
10.79940327,0.299999999999955,0.480000000000018
10.809403517,0.279999999999973,0.5
10.81940372,0.240000000000009,0.519999999999982
10.829404019,0.220000000000027,0.5
10.839404182,0.240000000000009,0.5
10.849404462,0.279999999999973,0.5
10.859404626,0.32000000000005,0.519999999999982
10.869404925,0.32000000000005,0.5
10.879405109,0.299999999999955,0.480000000000018
10.889405407,0.259999999999991,0.460000000000036
10.899405571,0.240000000000009,0.419999999999959
10.909405813,0.240000000000009,0.399999999999977
10.919406034,0.240000000000009,0.419999999999959
10.929406314,0.259999999999991,0.460000000000036
10.939406497,0.279999999999973,0.480000000000018
10.949406777,0.259999999999991,0.460000000000036
10.959406941,0.259999999999991,0.440000000000055
10.969407239,0.259999999999991,0.419999999999959
10.979407404,0.259999999999991,0.379999999999995
10.989407684,0.279999999999973,0.340000000000032
10.999407867,0.279999999999973,0.340000000000032
11.009408147,0.279999999999973,0.360000000000014
11.019408329,0.279999999999973,0.379999999999995
11.029408629,0.259999999999991,0.379999999999995
11.039408793,0.240000000000009,0.360000000000014
11.049409053,0.240000000000009,0.340000000000032
11.059409237,0.279999999999973,0.340000000000032
11.069409516,0.299999999999955,0.360000000000014
11.079409699,0.299999999999955,0.360000000000014
11.089409941,0.279999999999973,0.360000000000014
11.099410104,0.259999999999991,0.340000000000032
11.109410384,0.259999999999991,0.340000000000032
11.119410587,0.279999999999973,0.299999999999955
11.129410828,0.279999999999973,0.259999999999991
11.139410992,0.279999999999973,0.240000000000009
11.149411253,0.259999999999991,0.240000000000009
11.159411455,0.240000000000009,0.259999999999991
11.169411716,0.240000000000009,0.299999999999955
11.179411898,0.279999999999973,0.299999999999955
11.18941214,0.32000000000005,0.279999999999973
11.199412343,0.360000000000014,0.259999999999991
11.209412622,0.340000000000032,0.240000000000009
11.219412786,0.279999999999973,0.240000000000009
11.229413047,0.200000000000045,0.259999999999991
11.23941321,0.17999999999995,0.240000000000009
11.249413471,0.200000000000045,0.200000000000045
11.259413692,0.279999999999973,0.17999999999995
11.269413934,0.360000000000014,0.200000000000045
11.279414098,0.379999999999995,0.220000000000027
11.289414339,0.379999999999995,0.259999999999991
11.299414561,0.340000000000032,0.259999999999991
11.309414822,0.279999999999973,0.220000000000027
11.319414985,0.259999999999991,0.17999999999995
11.329415246,0.259999999999991,0.159999999999968
11.339415429,0.279999999999973,0.159999999999968
11.349415689,0.299999999999955,0.159999999999968
11.359415892,0.32000000000005,0.139999999999986
11.369416133,0.299999999999955,0.139999999999986
11.379416317,0.279999999999973,0.139999999999986
11.389416576,0.259999999999991,0.17999999999995
11.399416779,0.279999999999973,0.220000000000027
11.409417079,0.32000000000005,0.220000000000027
11.419417261,0.340000000000032,0.17999999999995
11.429417522,0.340000000000032,0.139999999999986
11.439417725,0.32000000000005,0.120000000000005
11.449418023,0.279999999999973,0.120000000000005
11.459418188,0.259999999999991,0.100000000000023
11.469418467,0.259999999999991,0.100000000000023
11.479418631,0.259999999999991,0.120000000000005
11.48941895,0.279999999999973,0.159999999999968
11.499419132,0.299999999999955,0.159999999999968
11.509419412,0.299999999999955,0.139999999999986
11.519419577,0.279999999999973,0.120000000000005
11.529419836,0.279999999999973,0.100000000000023
11.539420059,0.279999999999973,0.100000000000023
11.549420318,0.32000000000005,0.120000000000005
11.559420521,0.340000000000032,0.139999999999986
11.569420782,0.360000000000014,0.139999999999986
11.579420946,0.360000000000014,0.120000000000005
11.589421245,0.32000000000005,0.100000000000023
11.599421429,0.299999999999955,0.0800000000000409
11.609421727,0.259999999999991,0.0800000000000409
11.619421891,0.259999999999991,0.120000000000005
11.629422132,0.299999999999955,0.159999999999968
11.639422354,0.360000000000014,0.17999999999995
11.649422615,0.379999999999995,0.159999999999968
11.659422797,0.379999999999995,0.120000000000005
11.669423058,0.340000000000032,0.0800000000000409
11.67942328,0.279999999999973,0.0599999999999454
11.689423559,0.220000000000027,0.100000000000023
11.699423743,0.240000000000009,0.139999999999986
11.709423983,0.32000000000005,0.120000000000005
11.719424167,0.399999999999977,0.100000000000023
11.729424466,0.419999999999959,0.0800000000000409
11.739424668,0.379999999999995,0.0800000000000409
11.749424929,0.299999999999955,0.0800000000000409
11.759425113,0.240000000000009,0.0800000000000409
11.769425353,0.220000000000027,0.0800000000000409
11.779425576,0.259999999999991,0.0800000000000409
11.789425854,0.299999999999955,0.0599999999999454
11.799426057,0.360000000000014,0.0399999999999636
11.809426299,0.379999999999995,0.0199999999999818
11.819426482,0.360000000000014,0.0399999999999636
11.829426762,0.340000000000032,0.0800000000000409
11.839426984,0.32000000000005,0.120000000000005
11.849427244,0.32000000000005,0.139999999999986
11.859427408,0.299999999999955,0.120000000000005
11.869427725,0.279999999999973,0.0399999999999636
11.879427909,0.259999999999991,-0.0199999999999818
11.889428189,0.259999999999991,-0.0199999999999818
11.899428353,0.279999999999973,0.0199999999999818
11.909428613,0.340000000000032,0.0800000000000409
11.919428815,0.379999999999995,0.120000000000005
11.929429076,0.379999999999995,0.120000000000005
11.939429241,0.340000000000032,0.0800000000000409
11.9494295,0.299999999999955,0.0599999999999454
11.959429684,0.240000000000009,0.0399999999999636
11.969429945,0.220000000000027,0.0199999999999818
11.979430147,0.240000000000009,0.0199999999999818
11.989430407,0.279999999999973,0.0199999999999818
11.999430571,0.299999999999955,0.0399999999999636
12.009430812,0.340000000000032,0.0599999999999454
12.019431015,0.340000000000032,0.0800000000000409
12.029431294,0.32000000000005,0.0800000000000409
12.039431459,0.299999999999955,0.100000000000023
12.0494317,0.279999999999973,0.120000000000005
12.059431883,0.259999999999991,0.120000000000005
12.069432163,0.299999999999955,0.0800000000000409
12.079432346,0.340000000000032,0.0599999999999454
12.089432607,0.379999999999995,0.0199999999999818
12.099432771,0.360000000000014,0.0199999999999818
12.10943305,0.299999999999955,0.0399999999999636
12.119433253,0.200000000000045,0.0599999999999454
12.129433494,0.159999999999968,0.100000000000023
12.139433677,0.200000000000045,0.120000000000005
12.149433919,0.279999999999973,0.120000000000005
12.159434121,0.360000000000014,0.0800000000000409
12.169434381,0.379999999999995,0.0800000000000409
12.179434565,0.340000000000032,0.120000000000005
12.189434806,0.279999999999973,0.139999999999986
12.19943497,0.240000000000009,0.139999999999986
12.20943525,0.240000000000009,0.100000000000023
12.219435452,0.299999999999955,0.0599999999999454
12.229435694,0.340000000000032,0.0599999999999454
12.239435876,0.340000000000032,0.0800000000000409
12.249436137,0.299999999999955,0.100000000000023
12.259436321,0.259999999999991,0.120000000000005
12.2694366,0.240000000000009,0.139999999999986
12.279436764,0.279999999999973,0.159999999999968
12.289437044,0.340000000000032,0.159999999999968
12.299437208,0.379999999999995,0.139999999999986
12.309437507,0.360000000000014,0.120000000000005
12.319437709,0.32000000000005,0.100000000000023
12.329437989,0.259999999999991,0.0800000000000409
12.339438153,0.220000000000027,0.0599999999999454
12.349438451,0.240000000000009,0.0599999999999454
12.359438654,0.279999999999973,0.100000000000023
12.369438934,0.340000000000032,0.139999999999986
12.379439098,0.360000000000014,0.159999999999968
12.389439378,0.360000000000014,0.139999999999986
12.399439561,0.32000000000005,0.100000000000023
12.409439879,0.299999999999955,0.0800000000000409
12.419440044,0.279999999999973,0.0599999999999454
12.429440303,0.279999999999973,0.0599999999999454
12.439440487,0.299999999999955,0.100000000000023
12.449440786,0.32000000000005,0.120000000000005
12.45944095,0.299999999999955,0.120000000000005
12.469441249,0.299999999999955,0.100000000000023
12.479441432,0.279999999999973,0.0800000000000409
12.489441673,0.240000000000009,0.0800000000000409
12.499441876,0.240000000000009,0.120000000000005
12.509442174,0.240000000000009,0.17999999999995
12.519442358,0.279999999999973,0.17999999999995
12.529442618,0.279999999999973,0.159999999999968
12.539442782,0.299999999999955,0.139999999999986
12.549443081,0.299999999999955,0.100000000000023
12.559443264,0.259999999999991,0.0800000000000409
12.569443544,0.220000000000027,0.0399999999999636
12.579443709,0.17999999999995,0.0599999999999454
12.589444007,0.139999999999986,0.100000000000023
12.599444191,0.139999999999986,0.17999999999995
12.609444489,0.139999999999986,0.220000000000027
12.619444653,0.139999999999986,0.200000000000045
12.629444914,0.139999999999986,0.139999999999986
12.639445097,0.139999999999986,0.0800000000000409
12.649445396,0.120000000000005,0.0399999999999636
12.65944556,0.100000000000023,0.0199999999999818
12.669445859,0.0800000000000409,0.0199999999999818
12.679446023,0.100000000000023,0.0199999999999818
12.689446321,0.100000000000023,0.0199999999999818
12.699446486,0.0599999999999454,0.0399999999999636
12.709446785,0,0.0800000000000409
12.719446968,-0.0599999999999454,0.120000000000005
12.729447209,-0.120000000000005,0.120000000000005
12.739447393,-0.120000000000005,0.100000000000023
12.74944771,-0.0599999999999454,0.0800000000000409
12.759447875,0,0.0800000000000409
12.769448154,0,0.0800000000000409
12.779448338,-0.0399999999999636,0.0800000000000409
12.789448617,-0.139999999999986,0.0599999999999454
12.7994488,-0.220000000000027,0.0399999999999636
12.809449027,-0.279999999999973,0.0199999999999818
12.819449163,-0.259999999999991,0
12.829449414,-0.220000000000027,0
12.839449531,-0.159999999999968,0
12.849449783,-0.100000000000023,0.0399999999999636
12.859449918,-0.0800000000000409,0.100000000000023
12.869450112,-0.120000000000005,0.120000000000005
12.879450267,-0.17999999999995,0.120000000000005
12.88945048,-0.220000000000027,0.120000000000005
12.899450616,-0.259999999999991,0.100000000000023
12.90945081,-0.299999999999955,0.0399999999999636
12.919450945,-0.32000000000005,0
12.929451159,-0.299999999999955,-0.0199999999999818
12.939451314,-0.240000000000009,-0.0199999999999818
12.949451527,-0.159999999999968,0
12.959451643,-0.100000000000023,0.0800000000000409
12.969451856,-0.100000000000023,0.159999999999968
12.979451993,-0.139999999999986,0.200000000000045
12.989452225,-0.220000000000027,0.200000000000045
12.999452341,-0.279999999999973,0.17999999999995
13.009452554,-0.299999999999955,0.159999999999968
13.019452672,-0.279999999999973,0.139999999999986
13.029452903,-0.259999999999991,0.139999999999986
13.03945302,-0.220000000000027,0.139999999999986
13.049453233,-0.17999999999995,0.120000000000005
13.059453349,-0.159999999999968,0.120000000000005
13.069453582,-0.17999999999995,0.120000000000005
13.079453718,-0.200000000000045,0.120000000000005
13.089453931,-0.220000000000027,0.139999999999986
13.099454047,-0.259999999999991,0.17999999999995
13.10945426,-0.279999999999973,0.200000000000045
13.119454397,-0.259999999999991,0.220000000000027
13.129454629,-0.259999999999991,0.220000000000027
13.139454764,-0.240000000000009,0.220000000000027
13.149454958,-0.220000000000027,0.200000000000045
13.159455095,-0.220000000000027,0.17999999999995
13.169455307,-0.240000000000009,0.17999999999995
13.179455462,-0.259999999999991,0.159999999999968
13.189455656,-0.240000000000009,0.139999999999986
13.199455791,-0.220000000000027,0.139999999999986
13.209455986,-0.200000000000045,0.139999999999986
13.219456141,-0.200000000000045,0.159999999999968
13.229456354,-0.200000000000045,0.200000000000045
13.239456489,-0.240000000000009,0.220000000000027
13.249456703,-0.259999999999991,0.220000000000027
13.259456839,-0.279999999999973,0.17999999999995
13.269457071,-0.279999999999973,0.120000000000005
13.279457226,-0.240000000000009,0.120000000000005
13.289457419,-0.220000000000027,0.159999999999968
13.299457575,-0.200000000000045,0.220000000000027
13.309457807,-0.240000000000009,0.240000000000009
13.319457981,-0.340000000000032,0.240000000000009
13.329458175,-0.419999999999959,0.200000000000045
13.339458312,-0.419999999999959,0.159999999999968
13.349458505,-0.360000000000014,0.100000000000023
13.359458699,-0.259999999999991,0.0599999999999454
13.369458892,-0.220000000000027,0.0399999999999636
13.379459066,-0.220000000000027,0.0800000000000409
13.389459261,-0.279999999999973,0.159999999999968
13.399459396,-0.32000000000005,0.220000000000027
13.409459628,-0.32000000000005,0.220000000000027
13.419459803,-0.32000000000005,0.200000000000045
13.429460016,-0.299999999999955,0.159999999999968
13.439460152,-0.279999999999973,0.139999999999986
13.449460326,-0.279999999999973,0.100000000000023
13.45946052,-0.279999999999973,0.0399999999999636
13.469460732,-0.299999999999955,0
13.479460908,-0.279999999999973,0
13.489461082,-0.259999999999991,0.0399999999999636
13.499461295,-0.240000000000009,0.120000000000005
13.509461488,-0.259999999999991,0.17999999999995
13.519461663,-0.299999999999955,0.17999999999995
13.529461838,-0.32000000000005,0.159999999999968
13.539462012,-0.299999999999955,0.120000000000005
13.549462224,-0.259999999999991,0.0800000000000409
13.559462418,-0.240000000000009,0.0599999999999454
13.569462593,-0.240000000000009,0.0599999999999454
13.579462767,-0.259999999999991,0.0599999999999454
13.589462922,-0.279999999999973,0.100000000000023
13.599463135,-0.279999999999973,0.139999999999986
13.609463309,-0.279999999999973,0.139999999999986
13.619463523,-0.259999999999991,0.100000000000023
13.629463678,-0.259999999999991,0.0599999999999454
13.639463852,-0.279999999999973,0.0599999999999454
13.649464046,-0.32000000000005,0.0800000000000409
13.659464259,-0.360000000000014,0.120000000000005
13.669464434,-0.340000000000032,0.139999999999986
13.679464589,-0.259999999999991,0.159999999999968
13.689464763,-0.200000000000045,0.139999999999986
13.699464976,-0.200000000000045,0.139999999999986
13.709465151,-0.240000000000009,0.120000000000005
13.719465344,-0.299999999999955,0.139999999999986
13.729465499,-0.340000000000032,0.139999999999986
13.739465731,-0.340000000000032,0.159999999999968
13.749465906,-0.299999999999955,0.159999999999968
13.7594661,-0.240000000000009,0.17999999999995
13.769466255,-0.220000000000027,0.220000000000027
13.779466468,-0.240000000000009,0.240000000000009
13.789466623,-0.279999999999973,0.220000000000027
13.799466855,-0.340000000000032,0.17999999999995
13.80946701,-0.32000000000005,0.159999999999968
13.819467209,-0.279999999999973,0.159999999999968
13.82946735,-0.240000000000009,0.200000000000045
13.839467606,-0.220000000000027,0.220000000000027
13.849467767,-0.240000000000009,0.220000000000027
13.859467985,-0.279999999999973,0.220000000000027
13.869468106,-0.32000000000005,0.220000000000027
13.879468324,-0.340000000000032,0.220000000000027
13.889468485,-0.299999999999955,0.200000000000045
13.899468702,-0.240000000000009,0.200000000000045
13.909468843,-0.220000000000027,0.200000000000045
13.919469062,-0.259999999999991,0.220000000000027
13.929469183,-0.299999999999955,0.259999999999991
13.939469401,-0.32000000000005,0.259999999999991
13.949469561,-0.299999999999955,0.220000000000027
13.95946978,-0.259999999999991,0.220000000000027
13.969469901,-0.259999999999991,0.220000000000027
13.9794701,-0.259999999999991,0.240000000000009
13.98947028,-0.259999999999991,0.200000000000045
13.999470479,-0.279999999999973,0.139999999999986
14.0094706,-0.279999999999973,0.100000000000023
14.019470799,-0.259999999999991,0.120000000000005
14.02947096,-0.200000000000045,0.200000000000045
14.039471196,-0.139999999999986,0.240000000000009
14.049471318,-0.120000000000005,0.200000000000045
14.059471517,-0.159999999999968,0.159999999999968
14.069471658,-0.220000000000027,0.17999999999995
14.079471895,-0.259999999999991,0.259999999999991
14.089472055,-0.279999999999973,0.32000000000005
14.099472255,-0.240000000000009,0.340000000000032
14.109472395,-0.17999999999995,0.279999999999973
14.119472594,-0.139999999999986,0.200000000000045
14.129472735,-0.200000000000045,0.159999999999968
14.139472992,-0.299999999999955,0.159999999999968
14.149473113,-0.379999999999995,0.200000000000045
14.159473312,-0.360000000000014,0.220000000000027
14.169473434,-0.259999999999991,0.240000000000009
14.17947369,-0.139999999999986,0.220000000000027
14.189473831,-0.0800000000000409,0.200000000000045
14.19947403,-0.120000000000005,0.17999999999995
14.209474171,-0.220000000000027,0.17999999999995
14.21947437,-0.32000000000005,0.240000000000009
14.22947453,-0.32000000000005,0.299999999999955
14.239474768,-0.279999999999973,0.32000000000005
14.249474889,-0.220000000000027,0.299999999999955
14.259475107,-0.159999999999968,0.279999999999973
14.269475248,-0.139999999999986,0.259999999999991
14.279475486,-0.139999999999986,0.240000000000009
14.289475627,-0.17999999999995,0.200000000000045
14.299475844,-0.240000000000009,0.159999999999968
14.309475986,-0.32000000000005,0.17999999999995
14.319476223,-0.379999999999995,0.220000000000027
14.329476402,-0.399999999999977,0.259999999999991
14.33947662,-0.360000000000014,0.279999999999973
14.349476742,-0.279999999999973,0.259999999999991
14.35947696,-0.17999999999995,0.200000000000045
14.369477139,-0.139999999999986,0.139999999999986
14.379477376,-0.17999999999995,0.120000000000005
14.389477518,-0.259999999999991,0.159999999999968
14.399477716,-0.32000000000005,0.200000000000045
14.409477857,-0.299999999999955,0.220000000000027
14.419478114,-0.200000000000045,0.240000000000009
14.429478274,-0.139999999999986,0.220000000000027
14.439478511,-0.139999999999986,0.200000000000045
14.449478633,-0.259999999999991,0.17999999999995
14.459478832,-0.399999999999977,0.159999999999968
14.469479012,-0.5,0.17999999999995
14.479479248,-0.460000000000036,0.17999999999995
14.489479409,-0.279999999999973,0.200000000000045
14.499479608,-0.0800000000000409,0.17999999999995
14.509479787,0,0.159999999999968
14.519480024,-0.100000000000023,0.159999999999968
14.529480185,-0.259999999999991,0.17999999999995
14.539480384,-0.419999999999959,0.240000000000009
14.549480544,-0.460000000000036,0.259999999999991
14.559480781,-0.399999999999977,0.259999999999991
14.569480961,-0.32000000000005,0.279999999999973
14.579481159,-0.240000000000009,0.279999999999973
14.589481319,-0.220000000000027,0.259999999999991
14.599481499,-0.259999999999991,0.220000000000027
14.609481698,-0.279999999999973,0.17999999999995
14.619481896,-0.299999999999955,0.17999999999995
14.629482095,-0.299999999999955,0.220000000000027
14.639482275,-0.299999999999955,0.259999999999991
14.649482416,-0.340000000000032,0.299999999999955
14.659482653,-0.340000000000032,0.32000000000005
14.669482833,-0.32000000000005,0.340000000000032
14.679483051,-0.299999999999955,0.32000000000005
14.689483191,-0.32000000000005,0.299999999999955
14.699483371,-0.360000000000014,0.279999999999973
14.709483589,-0.399999999999977,0.299999999999955
14.719483788,-0.419999999999959,0.32000000000005
14.729483967,-0.440000000000055,0.340000000000032
14.739484166,-0.419999999999959,0.299999999999955
14.749484307,-0.399999999999977,0.220000000000027
14.759484544,-0.340000000000032,0.159999999999968
14.769484685,-0.279999999999973,0.139999999999986
14.779484904,-0.259999999999991,0.159999999999968
14.789485064,-0.279999999999973,0.240000000000009
14.799485281,-0.32000000000005,0.360000000000014
14.809485479,-0.360000000000014,0.460000000000036
14.819485717,-0.379999999999995,0.480000000000018
14.829485898,-0.399999999999977,0.440000000000055
14.839486097,-0.440000000000055,0.399999999999977
14.849486317,-0.440000000000055,0.32000000000005
14.859486556,-0.419999999999959,0.200000000000045
14.869486737,-0.379999999999995,0.100000000000023
14.879486937,-0.299999999999955,0.0800000000000409
14.889487137,-0.259999999999991,0.120000000000005
14.899487376,-0.259999999999991,0.200000000000045
14.909487576,-0.32000000000005,0.32000000000005
14.919487795,-0.399999999999977,0.440000000000055
14.929487976,-0.460000000000036,0.5
14.939488176,-0.460000000000036,0.5
14.949488414,-0.419999999999959,0.460000000000036
14.959488634,-0.360000000000014,0.399999999999977
14.969488834,-0.32000000000005,0.32000000000005
14.979489015,-0.340000000000032,0.259999999999991
14.989489215,-0.379999999999995,0.220000000000027
14.999489416,-0.419999999999959,0.220000000000027
15.009489654,-0.419999999999959,0.259999999999991
15.019489816,-0.360000000000014,0.299999999999955
15.029490016,-0.32000000000005,0.299999999999955
15.039490236,-0.299999999999955,0.299999999999955
15.049490454,-0.360000000000014,0.299999999999955
15.059490616,-0.440000000000055,0.32000000000005
15.069490816,-0.480000000000018,0.340000000000032
15.079490997,-0.440000000000055,0.360000000000014
15.089491236,-0.360000000000014,0.32000000000005
15.099491436,-0.279999999999973,0.259999999999991
15.109491617,-0.279999999999973,0.17999999999995
15.119491817,-0.340000000000032,0.139999999999986
15.129492018,-0.440000000000055,0.139999999999986
15.139492218,-0.5,0.159999999999968
15.149492436,-0.5,0.200000000000045
15.159492617,-0.399999999999977,0.240000000000009
15.169492817,-0.32000000000005,0.240000000000009
15.179492979,-0.279999999999973,0.259999999999991
15.189493218,-0.32000000000005,0.259999999999991
15.199493418,-0.379999999999995,0.259999999999991
15.209493618,-0.440000000000055,0.240000000000009
15.219493799,-0.440000000000055,0.240000000000009
15.229494,-0.399999999999977,0.240000000000009
15.2394942,-0.360000000000014,0.279999999999973
15.249494418,-0.360000000000014,0.279999999999973
15.259494599,-0.360000000000014,0.279999999999973
15.2694948,-0.399999999999977,0.259999999999991
15.279495,-0.419999999999959,0.240000000000009
15.289495238,-0.399999999999977,0.259999999999991
15.299495419,-0.340000000000032,0.279999999999973
15.30949562,-0.32000000000005,0.299999999999955
15.319495781,-0.360000000000014,0.299999999999955
15.32949602,-0.440000000000055,0.32000000000005
15.33949622,-0.480000000000018,0.279999999999973
15.34949642,-0.480000000000018,0.240000000000009
15.359496601,-0.440000000000055,0.200000000000045
15.369496782,-0.360000000000014,0.220000000000027
15.379497001,-0.299999999999955,0.299999999999955
15.389497221,-0.279999999999973,0.340000000000032
15.399497402,-0.32000000000005,0.32000000000005
15.409497602,-0.399999999999977,0.279999999999973
15.419497783,-0.460000000000036,0.259999999999991
15.429498002,-0.480000000000018,0.279999999999973
15.439498222,-0.460000000000036,0.279999999999973
15.449498441,-0.460000000000036,0.259999999999991
15.45949864,-0.419999999999959,0.259999999999991
15.469498802,-0.399999999999977,0.299999999999955
15.47949906,-0.399999999999977,0.340000000000032
15.48949926,-0.360000000000014,0.340000000000032
15.499499499,-0.340000000000032,0.32000000000005
15.509499661,-0.360000000000014,0.299999999999955
15.519499861,-0.379999999999995,0.279999999999973
15.5295001,-0.440000000000055,0.279999999999973
15.539500319,-0.519999999999982,0.299999999999955
15.549500519,-0.559999999999945,0.32000000000005
15.559500738,-0.519999999999982,0.360000000000014
15.569500957,-0.419999999999959,0.399999999999977
15.579501177,-0.32000000000005,0.399999999999977
15.589501377,-0.279999999999973,0.379999999999995
15.599501577,-0.340000000000032,0.340000000000032
15.609501777,-0.440000000000055,0.32000000000005
15.619501997,-0.519999999999982,0.279999999999973
15.629502236,-0.539999999999964,0.240000000000009
15.639502436,-0.519999999999982,0.259999999999991
15.649502636,-0.460000000000036,0.32000000000005
15.659502835,-0.379999999999995,0.360000000000014
15.669503055,-0.340000000000032,0.360000000000014
15.679503293,-0.340000000000032,0.32000000000005
15.689503494,-0.379999999999995,0.279999999999973
15.699503694,-0.419999999999959,0.240000000000009
15.709503875,-0.480000000000018,0.220000000000027
15.719504133,-0.519999999999982,0.259999999999991
15.729504333,-0.480000000000018,0.279999999999973
15.739504553,-0.419999999999959,0.299999999999955
15.749504734,-0.340000000000032,0.279999999999973
15.759504933,-0.299999999999955,0.240000000000009
15.769505152,-0.32000000000005,0.240000000000009
15.779505372,-0.379999999999995,0.240000000000009
15.789505591,-0.419999999999959,0.240000000000009
15.799505791,-0.440000000000055,0.240000000000009
15.809505954,-0.379999999999995,0.259999999999991
15.819506226,-0.279999999999973,0.299999999999955
15.82950644,-0.220000000000027,0.299999999999955
15.839506694,-0.240000000000009,0.299999999999955
15.84950687,-0.32000000000005,0.279999999999973
15.859507103,-0.419999999999959,0.259999999999991
15.869507338,-0.460000000000036,0.279999999999973
15.879507552,-0.399999999999977,0.299999999999955
15.889507767,-0.279999999999973,0.279999999999973
15.899507981,-0.17999999999995,0.259999999999991
15.909508215,-0.159999999999968,0.240000000000009
15.919508469,-0.220000000000027,0.240000000000009
15.929508683,-0.32000000000005,0.259999999999991
15.939508897,-0.399999999999977,0.279999999999973
15.949509112,-0.419999999999959,0.32000000000005
15.959509346,-0.340000000000032,0.32000000000005
15.969509598,-0.240000000000009,0.299999999999955
15.979509814,-0.17999999999995,0.279999999999973
15.989510028,-0.17999999999995,0.279999999999973
15.999510205,-0.240000000000009,0.279999999999973
16.009510496,-0.299999999999955,0.279999999999973
16.019510691,-0.340000000000032,0.279999999999973
16.029510944,-0.340000000000032,0.279999999999973
16.039511139,-0.32000000000005,0.279999999999973
16.049511354,-0.259999999999991,0.259999999999991
16.059511588,-0.259999999999991,0.240000000000009
16.069511822,-0.259999999999991,0.240000000000009
16.079512056,-0.259999999999991,0.240000000000009
16.08951227,-0.220000000000027,0.259999999999991
16.099512446,-0.220000000000027,0.259999999999991
16.109512719,-0.0800000000000409,0.279999999999973
16.119512933,-0.0199999999999818,0.279999999999973
16.129513167,-0.0199999999999818,0.279999999999973
16.139513363,-0.0199999999999818,0.279999999999973
16.149513596,-0.100000000000023,0.299999999999955
16.159513831,-0.279999999999973,0.379999999999995
16.169514064,-0.240000000000009,0.340000000000032
16.179514278,-0.139999999999986,0.259999999999991
16.189514494,-0.0800000000000409,0.159999999999968
16.199514746,-0.0800000000000409,0.159999999999968
16.20951498,-0.0399999999999636,0.100000000000023
16.219515195,-0.0599999999999454,0.139999999999986
16.229515409,-0.0599999999999454,0.17999999999995
16.239515605,-0.0599999999999454,0.240000000000009
16.249515839,-0.0800000000000409,0.279999999999973
16.259516053,-0.0800000000000409,0.279999999999973
16.269516268,-0.100000000000023,0.340000000000032
16.279516463,-0.100000000000023,0.299999999999955
16.289516677,-0.0399999999999636,0.240000000000009
16.299516912,0.0199999999999818,0.159999999999968
16.309517145,0.0599999999999454,0.100000000000023
16.319517321,0.0399999999999636,0.100000000000023
16.329517536,0,0.100000000000023
16.339517731,-0.0399999999999636,0.100000000000023
16.349517985,-0.0399999999999636,0.100000000000023
16.359518199,0.0199999999999818,0.120000000000005
16.369518413,0.100000000000023,0.139999999999986
16.379518609,0.139999999999986,0.139999999999986
16.389518824,0.100000000000023,0.139999999999986
16.399519019,0.0199999999999818,0.120000000000005
16.409519272,-0.0599999999999454,0.100000000000023
16.419519467,-0.0800000000000409,0.0599999999999454
16.429519683,-0.0800000000000409,0.0599999999999454
16.439519858,0.0599999999999454,0.0599999999999454
16.449520111,0.120000000000005,0.0399999999999636
16.459520326,0.100000000000023,0.0199999999999818
16.46952054,0.0399999999999636,0.0199999999999818
16.479520735,-0.0199999999999818,0.0199999999999818
16.489520951,-0.0599999999999454,0.0399999999999636
16.499521165,-0.0399999999999636,0.0399999999999636
16.50952138,-0.0399999999999636,0.0399999999999636
16.519521575,0,0
16.529521789,0.0399999999999636,-0.0199999999999818
16.539522005,0.0399999999999636,-0.0199999999999818
16.549522238,-0.0199999999999818,0
16.559522433,-0.0399999999999636,0.0199999999999818
16.569522648,-0.0199999999999818,0
16.579522843,0,-0.0199999999999818
16.589523097,0,-0.0199999999999818
16.599523311,0,-0.0199999999999818
16.609523525,0,0
16.619523702,0,0
16.629523936,-0.0399999999999636,0
16.63952415,0,-0.0199999999999818
16.649524384,0,0
16.65952456,0,0
16.669524794,0,0
16.67952499,0,0
16.689525223,-0.0199999999999818,0
16.699525438,-0.0199999999999818,0
16.709525653,-0.0199999999999818,0.0199999999999818
16.719525848,-0.0399999999999636,0.0199999999999818
16.729526063,-0.0599999999999454,0.0399999999999636
16.739526277,-0.0399999999999636,0.0399999999999636
16.74952651,-0.0399999999999636,0.0399999999999636
16.759526706,0.0199999999999818,0
16.769526921,0.0399999999999636,-0.0199999999999818
16.779527117,0.0199999999999818,-0.0199999999999818
16.78952735,-0.0199999999999818,-0.0199999999999818
16.799527564,-0.0599999999999454,0
16.809527779,-0.0599999999999454,0.0199999999999818
16.819527974,0,0.0199999999999818
16.829528226,0.0599999999999454,0
16.83952846,0.0800000000000409,-0.0199999999999818
16.849528674,0.0800000000000409,-0.0199999999999818
16.859528888,-0.0800000000000409,0
16.869529102,-0.120000000000005,0.0199999999999818
16.879529336,-0.120000000000005,0
16.889529588,-0.120000000000005,0
16.899529802,0.0199999999999818,-0.0199999999999818
16.909530016,0.0800000000000409,-0.0399999999999636
16.919530211,0.0599999999999454,-0.0599999999999454
16.929530483,0,-0.0399999999999636
16.939530697,0,-0.0399999999999636
16.949530931,-0.100000000000023,0
16.959531126,-0.0599999999999454,0
16.96953134,0,-0.0199999999999818
16.979531573,0.0399999999999636,-0.0599999999999454
16.989531806,0.0399999999999636,-0.0599999999999454
16.999532039,0,-0.0399999999999636
17.009532254,-0.0800000000000409,-0.0199999999999818
17.019532429,-0.100000000000023,-0.0199999999999818
17.029532701,-0.0599999999999454,-0.0199999999999818
17.039532915,-0.0599999999999454,-0.0199999999999818
17.049533168,0,-0.0599999999999454
17.059533344,0,-0.0599999999999454
17.069533577,-0.0800000000000409,-0.0199999999999818
17.079533811,-0.120000000000005,0
17.089534043,-0.100000000000023,-0.0199999999999818
17.099534258,-0.100000000000023,-0.0199999999999818
17.109534491,0,-0.100000000000023
17.119534667,0,-0.100000000000023
17.129534939,-0.0599999999999454,-0.0599999999999454
17.139535153,-0.100000000000023,-0.0399999999999636
17.149535386,-0.100000000000023,-0.0199999999999818
17.159535581,-0.0399999999999636,-0.0199999999999818
17.169535796,0,-0.0399999999999636
17.179536048,0.0199999999999818,-0.0599999999999454
17.189536262,-0.0199999999999818,-0.0800000000000409
17.199536476,-0.120000000000005,-0.100000000000023
17.20953669,-0.17999999999995,-0.100000000000023
17.219536923,-0.17999999999995,-0.0800000000000409
17.229537176,-0.0800000000000409,-0.0599999999999454
17.239537371,0.0199999999999818,-0.0399999999999636
17.249537605,0.0599999999999454,-0.0599999999999454
17.259537819,0,-0.0800000000000409
17.269538052,-0.120000000000005,-0.0599999999999454
17.279538286,-0.240000000000009,0
17.289538519,-0.220000000000027,0.0199999999999818
17.299538732,-0.100000000000023,0
17.309538908,0,-0.0399999999999636
17.31953918,0.0399999999999636,-0.120000000000005
17.329539394,0.0199999999999818,-0.120000000000005
17.339539647,-0.0800000000000409,-0.100000000000023
17.349539823,-0.17999999999995,-0.0599999999999454
17.359540056,-0.200000000000045,-0.0800000000000409
17.36954029,-0.139999999999986,-0.120000000000005
17.379540523,-0.0599999999999454,-0.139999999999986
17.389540737,-0.0199999999999818,-0.139999999999986
17.39954097,-0.0199999999999818,-0.120000000000005
17.409541146,-0.0800000000000409,-0.120000000000005
17.419541418,-0.120000000000005,-0.139999999999986
17.429541632,-0.120000000000005,-0.139999999999986
17.439541865,-0.0800000000000409,-0.159999999999968
17.44954206,-0.0399999999999636,-0.17999999999995
17.459542275,-0.0399999999999636,-0.17999999999995
17.469542527,-0.0399999999999636,-0.17999999999995
17.479542761,-0.0800000000000409,-0.17999999999995
17.489542975,-0.120000000000005,-0.17999999999995
17.499543188,-0.139999999999986,-0.200000000000045
17.509543383,-0.100000000000023,-0.200000000000045
17.519543636,-0.0599999999999454,-0.17999999999995
17.52954385,0,-0.159999999999968
17.539544103,0,-0.139999999999986
17.549544298,0,-0.139999999999986
17.55954455,-0.0399999999999636,-0.159999999999968
17.569544765,-0.100000000000023,-0.200000000000045
17.579545017,-0.159999999999968,-0.220000000000027
17.589545212,-0.159999999999968,-0.220000000000027
17.599545445,-0.139999999999986,-0.17999999999995
17.609545659,-0.0800000000000409,-0.120000000000005
17.619545931,-0.0399999999999636,-0.0800000000000409
17.629546107,0,-0.100000000000023
17.639546359,0,-0.120000000000005
17.649546516,-0.0199999999999818,-0.159999999999968
17.659546807,-0.0800000000000409,-0.159999999999968
17.669547002,-0.120000000000005,-0.120000000000005
17.679547274,-0.120000000000005,-0.120000000000005
17.689547431,-0.0599999999999454,-0.139999999999986
17.699547683,0,-0.17999999999995
17.709547897,0,-0.17999999999995
17.719548149,-0.0599999999999454,-0.17999999999995
17.729548344,-0.139999999999986,-0.159999999999968
17.739548578,-0.17999999999995,-0.159999999999968
17.749548753,-0.139999999999986,-0.159999999999968
17.759549045,-0.0599999999999454,-0.159999999999968
17.76954924,0,-0.17999999999995
17.779549492,0.0199999999999818,-0.17999999999995
17.789549668,0,-0.159999999999968
17.799549902,-0.0599999999999454,-0.139999999999986
17.809550115,-0.120000000000005,-0.120000000000005
17.819550385,-0.120000000000005,-0.120000000000005
17.829550558,-0.0800000000000409,-0.120000000000005
17.839550809,-0.0399999999999636,-0.139999999999986
17.849550984,-0.0399999999999636,-0.139999999999986
17.859551254,-0.0800000000000409,-0.120000000000005
17.869551466,-0.139999999999986,-0.0599999999999454
17.879551718,-0.139999999999986,-0.0199999999999818
17.889551872,-0.0800000000000409,0
17.899552142,0,-0.0199999999999818
17.909552335,0.0399999999999636,-0.0599999999999454
17.919552568,0.0199999999999818,-0.0800000000000409
17.929552741,-0.0399999999999636,-0.0599999999999454
17.939552973,-0.139999999999986,-0.0399999999999636
17.949553167,-0.17999999999995,-0.0399999999999636
17.959553437,-0.139999999999986,-0.0399999999999636
17.969553591,-0.0599999999999454,-0.0599999999999454
17.979553842,0,-0.0599999999999454
17.989553998,0,-0.0399999999999636
17.999554268,-0.0199999999999818,-0.0199999999999818
18.009554441,-0.0800000000000409,-0.0199999999999818
18.019554693,-0.120000000000005,-0.0399999999999636
18.029554848,-0.120000000000005,-0.0599999999999454
18.039555098,-0.0800000000000409,-0.0599999999999454
18.049555272,-0.0399999999999636,-0.0800000000000409
18.059555543,-0.0199999999999818,-0.0800000000000409
18.069555717,-0.0399999999999636,-0.100000000000023
18.079555948,-0.0800000000000409,-0.100000000000023
18.089556122,-0.100000000000023,-0.0800000000000409
18.099556374,-0.100000000000023,-0.0599999999999454
18.109556567,-0.0800000000000409,-0.0599999999999454
18.119556798,-0.0599999999999454,-0.0599999999999454
18.129556973,-0.0599999999999454,-0.0399999999999636
18.139557204,-0.0800000000000409,-0.0399999999999636
18.149557397,-0.120000000000005,-0.0599999999999454
18.159557667,-0.139999999999986,-0.0800000000000409
18.169557823,-0.159999999999968,-0.120000000000005
18.179558054,-0.139999999999986,-0.139999999999986
18.189558228,-0.100000000000023,-0.139999999999986
18.199558499,-0.0800000000000409,-0.100000000000023
18.209558673,-0.0599999999999454,-0.0800000000000409
18.219558923,-0.0599999999999454,-0.0800000000000409
18.229559078,-0.100000000000023,-0.0800000000000409
18.23955933,-0.159999999999968,-0.0599999999999454
18.249559503,-0.200000000000045,-0.0399999999999636
18.259559754,-0.220000000000027,-0.0199999999999818
18.26955991,-0.17999999999995,-0.0399999999999636
18.27956016,-0.100000000000023,-0.100000000000023
18.289560334,-0.0399999999999636,-0.120000000000005
18.299560604,-0.0199999999999818,-0.120000000000005
18.309560779,-0.0599999999999454,-0.100000000000023
18.31956101,-0.139999999999986,-0.0599999999999454
18.329561165,-0.200000000000045,-0.0199999999999818
18.339561436,-0.200000000000045,0
18.349561629,-0.120000000000005,-0.0199999999999818
18.35956186,-0.0599999999999454,-0.0599999999999454
18.369562015,-0.0399999999999636,-0.0800000000000409
18.379562266,-0.0800000000000409,-0.0599999999999454
18.389562459,-0.159999999999968,-0.0399999999999636
18.39956271,-0.220000000000027,-0.0199999999999818
18.409562885,-0.220000000000027,-0.0199999999999818
18.419563136,-0.139999999999986,0
18.42956329,-0.0399999999999636,0
18.439563541,0.0199999999999818,-0.0199999999999818
18.449563754,0.0199999999999818,-0.0599999999999454
18.459563985,-0.0800000000000409,-0.0399999999999636
18.46956414,-0.200000000000045,-0.0199999999999818
18.479564372,-0.279999999999973,0
18.489564585,-0.279999999999973,0
18.499564835,-0.220000000000027,0
18.50956499,-0.139999999999986,-0.0199999999999818
18.519565242,-0.0599999999999454,-0.0399999999999636
18.529565396,-0.0199999999999818,-0.0199999999999818
18.539565666,-0.0399999999999636,0
18.54956586,-0.0800000000000409,-0.0199999999999818
18.559566092,-0.120000000000005,-0.0399999999999636
18.569566265,-0.139999999999986,-0.0800000000000409
18.579566497,-0.139999999999986,-0.0800000000000409
18.589566672,-0.120000000000005,-0.0399999999999636
18.599566961,-0.120000000000005,-0.0199999999999818
18.609567115,-0.139999999999986,-0.0199999999999818
18.619567347,-0.159999999999968,-0.0599999999999454
18.629567541,-0.200000000000045,-0.0800000000000409
18.639567811,-0.200000000000045,-0.0800000000000409
18.649567965,-0.159999999999968,-0.0599999999999454
18.659568198,-0.120000000000005,-0.0599999999999454
18.669568371,-0.0800000000000409,-0.0599999999999454
18.679568641,-0.0599999999999454,-0.100000000000023
18.689568815,-0.0800000000000409,-0.120000000000005
18.699569067,-0.159999999999968,-0.139999999999986
18.709569241,-0.200000000000045,-0.120000000000005
18.719569472,-0.17999999999995,-0.100000000000023
18.729569647,-0.159999999999968,-0.100000000000023
18.739569917,-0.120000000000005,-0.100000000000023
18.74957009,-0.120000000000005,-0.100000000000023
18.759570322,-0.139999999999986,-0.100000000000023
18.769570516,-0.17999999999995,-0.100000000000023
18.779570786,-0.17999999999995,-0.0800000000000409
18.789570998,-0.159999999999968,-0.0599999999999454
18.799571231,-0.120000000000005,-0.0399999999999636
18.809571424,-0.100000000000023,-0.0599999999999454
18.819571635,-0.100000000000023,-0.0800000000000409
18.829571865,-0.139999999999986,-0.0800000000000409
18.839572096,-0.200000000000045,-0.0599999999999454
18.849572327,-0.220000000000027,-0.0199999999999818
18.859572538,-0.200000000000045,0.0199999999999818
18.869572711,-0.159999999999968,0.0199999999999818
18.87957298,-0.139999999999986,0
18.889573191,-0.159999999999968,0
18.899573442,-0.200000000000045,0
18.909573615,-0.220000000000027,0.0199999999999818
18.919573845,-0.17999999999995,0.0399999999999636
18.929574076,-0.0800000000000409,0.0399999999999636
18.939574306,-0.0199999999999818,0.0199999999999818
18.949574518,0,0
18.959574749,-0.0599999999999454,0
18.969574922,-0.17999999999995,0.0199999999999818
18.979575191,-0.279999999999973,0.0599999999999454
18.989575383,-0.32000000000005,0.0800000000000409
18.999575613,-0.240000000000009,0.0599999999999454
19.009575806,-0.120000000000005,0.0199999999999818
19.019576056,-0.0199999999999818,0
19.029576286,-0.0199999999999818,-0.0199999999999818
19.039576517,-0.100000000000023,0
19.049576709,-0.17999999999995,0.0399999999999636
19.05957694,-0.200000000000045,0.0399999999999636
19.069577151,-0.17999999999995,0.0199999999999818
19.07957742,-0.159999999999968,0
19.089577593,-0.159999999999968,0
19.099577843,-0.139999999999986,-0.0199999999999818
19.109578016,-0.159999999999968,-0.0199999999999818
19.119578285,-0.17999999999995,-0.0199999999999818
19.129578477,-0.17999999999995,0
19.139578746,-0.139999999999986,0.0199999999999818
19.1495789,-0.100000000000023,0.0399999999999636
19.159579151,-0.0800000000000409,0.0199999999999818
19.169579362,-0.100000000000023,-0.0199999999999818
19.179579631,-0.120000000000005,-0.0399999999999636
19.189579803,-0.139999999999986,-0.0599999999999454
19.199580034,-0.139999999999986,-0.0599999999999454
19.209580208,-0.139999999999986,-0.0800000000000409
19.219580496,-0.17999999999995,-0.0800000000000409
19.229580688,-0.200000000000045,-0.0199999999999818
19.239580938,-0.200000000000045,0.0399999999999636
19.24958111,-0.200000000000045,0.0800000000000409
19.259581341,-0.120000000000005,0.0800000000000409
19.269581553,-0.0599999999999454,0.0199999999999818
19.279581822,-0.0199999999999818,-0.0199999999999818
19.289582014,-0.0800000000000409,-0.0399999999999636
19.299582244,-0.17999999999995,-0.0199999999999818
19.309582417,-0.259999999999991,0
19.319582706,-0.240000000000009,0.0399999999999636
19.32958286,-0.139999999999986,0.0599999999999454
19.339583129,-0.0399999999999636,0.0399999999999636
19.349583302,0,0.0399999999999636
19.35958359,-0.0800000000000409,0.0399999999999636
19.369583763,-0.200000000000045,0.0800000000000409
19.379584032,-0.299999999999955,0.100000000000023
19.389584205,-0.299999999999955,0.100000000000023
19.399584455,-0.200000000000045,0.0800000000000409
19.409584647,-0.100000000000023,0.0399999999999636
19.419584917,-0.0399999999999636,0.0199999999999818
19.42958509,-0.0399999999999636,0.0199999999999818
19.439585358,-0.100000000000023,0.0599999999999454
19.449585512,-0.159999999999968,0.0599999999999454
19.459585819,-0.220000000000027,0.0399999999999636
19.469585973,-0.240000000000009,0.0399999999999636
19.479586262,-0.240000000000009,0.0399999999999636
19.489586416,-0.220000000000027,0.0599999999999454
19.499586665,-0.17999999999995,0.0800000000000409
19.509586838,-0.139999999999986,0.100000000000023
19.519587126,-0.120000000000005,0.139999999999986
19.5295873,-0.0800000000000409,0.139999999999986
19.539587569,-0.0800000000000409,0.120000000000005
19.549587722,-0.100000000000023,0.0599999999999454
19.559588011,-0.139999999999986,0
19.569588183,-0.200000000000045,0
19.579588473,-0.220000000000027,0
19.589588626,-0.200000000000045,0.0399999999999636
19.599588857,-0.17999999999995,0.0800000000000409
19.609589049,-0.159999999999968,0.120000000000005
19.619589337,-0.120000000000005,0.159999999999968
19.629589491,-0.100000000000023,0.159999999999968
19.639589779,-0.100000000000023,0.100000000000023
19.649589933,-0.120000000000005,0.0399999999999636
19.659590221,-0.139999999999986,0
19.669590375,-0.17999999999995,0
19.679590664,-0.200000000000045,0.0199999999999818
19.689590837,-0.220000000000027,0.0599999999999454
19.699591067,-0.200000000000045,0.100000000000023
19.709591259,-0.17999999999995,0.120000000000005
19.719591528,-0.139999999999986,0.120000000000005
19.729591681,-0.120000000000005,0.100000000000023
19.739591932,-0.159999999999968,0.0599999999999454
19.749592143,-0.200000000000045,0.0599999999999454
19.759592412,-0.220000000000027,0.0800000000000409
19.769592585,-0.200000000000045,0.120000000000005
19.779592854,-0.17999999999995,0.139999999999986
19.789593009,-0.139999999999986,0.120000000000005
19.799593297,-0.120000000000005,0.100000000000023
19.809593464,-0.139999999999986,0.0800000000000409
19.819593699,-0.159999999999968,0.0800000000000409
19.829593817,-0.17999999999995,0.100000000000023
19.839594014,-0.200000000000045,0.100000000000023
19.849594191,-0.17999999999995,0.100000000000023
19.859594426,-0.17999999999995,0.100000000000023
19.869594584,-0.220000000000027,0.100000000000023
19.879594779,-0.240000000000009,0.100000000000023
19.889594918,-0.220000000000027,0.120000000000005
19.899595172,-0.17999999999995,0.120000000000005
19.909595311,-0.139999999999986,0.100000000000023
19.919595546,-0.120000000000005,0.0399999999999636
19.929595684,-0.159999999999968,0
19.93959588,-0.200000000000045,0
19.949596057,-0.240000000000009,0
19.959596273,-0.240000000000009,0.0599999999999454
19.96959645,-0.17999999999995,0.120000000000005
19.979596646,-0.100000000000023,0.120000000000005
19.989596765,-0.0399999999999636,0.0800000000000409
19.999597039,-0.0800000000000409,0.0199999999999818
20.009597177,-0.17999999999995,0
20.019597412,-0.299999999999955,0
20.029597532,-0.340000000000032,0
20.039597747,-0.279999999999973,0
20.049597924,-0.17999999999995,0
20.059598139,-0.100000000000023,0
20.069598317,-0.100000000000023,0
20.079598513,-0.159999999999968,0
20.089598632,-0.240000000000009,0.0199999999999818
20.099598886,-0.279999999999973,0.0199999999999818
20.109599025,-0.240000000000009,0.0199999999999818
20.11959924,-0.159999999999968,0.0199999999999818
20.129599379,-0.120000000000005,0
20.139599632,-0.139999999999986,0
20.14959979,-0.200000000000045,0
20.159600006,-0.259999999999991,0
20.169600125,-0.279999999999973,0
20.17960038,-0.240000000000009,0
20.189600517,-0.200000000000045,0
20.199600752,-0.139999999999986,0
20.209600872,-0.100000000000023,0
20.219601088,-0.139999999999986,0.0199999999999818
20.229601207,-0.200000000000045,0.0599999999999454
20.239601442,-0.259999999999991,0.0599999999999454
20.249601599,-0.279999999999973,0.0199999999999818
20.259601795,-0.279999999999973,-0.0199999999999818
20.269601915,-0.259999999999991,-0.0599999999999454
20.279602131,-0.240000000000009,-0.0399999999999636
20.289602289,-0.220000000000027,0
20.299602503,-0.17999999999995,0.0599999999999454
20.309602642,-0.17999999999995,0.0599999999999454
20.319602839,-0.220000000000027,0.0399999999999636
20.329602977,-0.240000000000009,0.0199999999999818
20.339603193,-0.240000000000009,0
20.34960335,-0.259999999999991,0
20.359603566,-0.299999999999955,0
20.369603685,-0.299999999999955,0
20.379603882,-0.279999999999973,0.0199999999999818
20.38960404,-0.240000000000009,0.0199999999999818
20.399604275,-0.200000000000045,0.0199999999999818
20.409604393,-0.17999999999995,0
20.41960459,-0.17999999999995,0
20.429604728,-0.220000000000027,0.0199999999999818
20.439604963,-0.279999999999973,0.0199999999999818
20.449605102,-0.340000000000032,0.0199999999999818
20.459605317,-0.360000000000014,0.0199999999999818
20.469605456,-0.32000000000005,0.0199999999999818
20.479605671,-0.240000000000009,0.0199999999999818
20.489605829,-0.17999999999995,0.0199999999999818
20.499606045,-0.139999999999986,0
20.509606164,-0.200000000000045,-0.0199999999999818
20.51960636,-0.299999999999955,-0.0399999999999636
20.529606518,-0.360000000000014,-0.0199999999999818
20.539606753,-0.360000000000014,0.0199999999999818
20.549606872,-0.259999999999991,0.0599999999999454
20.559607068,-0.159999999999968,0.0599999999999454
20.569607207,-0.120000000000005,0.0199999999999818
20.579607442,-0.220000000000027,-0.0199999999999818
20.58960758,-0.360000000000014,-0.0399999999999636
20.599607777,-0.480000000000018,0
20.609607916,-0.5,0.0199999999999818
20.61960813,-0.399999999999977,0.0399999999999636
20.629608269,-0.240000000000009,0.0199999999999818
20.639608504,-0.0800000000000409,-0.0199999999999818
20.649608643,-0.0599999999999454,-0.0800000000000409
20.659608839,-0.159999999999968,-0.0800000000000409
20.669608958,-0.32000000000005,-0.0599999999999454
20.679609193,-0.440000000000055,0
20.689609351,-0.440000000000055,0
20.699609547,-0.379999999999995,0
20.709609667,-0.279999999999973,-0.0199999999999818
20.719609881,-0.240000000000009,-0.0399999999999636
20.729610039,-0.240000000000009,-0.0599999999999454
20.739610255,-0.299999999999955,-0.0399999999999636
20.749610394,-0.360000000000014,-0.0199999999999818
20.75961059,-0.340000000000032,0
20.769610728,-0.259999999999991,-0.0199999999999818
20.779610944,-0.200000000000045,-0.0599999999999454
20.789611121,-0.200000000000045,-0.120000000000005
20.799611317,-0.259999999999991,-0.100000000000023
20.809611438,-0.340000000000032,-0.0199999999999818
20.819611707,-0.379999999999995,0.0199999999999818
20.829611899,-0.360000000000014,0
20.839612128,-0.299999999999955,-0.0399999999999636
20.849612282,-0.259999999999991,-0.0599999999999454
20.859612532,-0.240000000000009,-0.0599999999999454
20.869612724,-0.240000000000009,-0.0399999999999636
20.879612973,-0.259999999999991,-0.0199999999999818
20.889613145,-0.279999999999973,-0.0199999999999818
20.899613376,-0.299999999999955,-0.0399999999999636
20.909613548,-0.279999999999973,-0.0800000000000409
20.919613798,-0.279999999999973,-0.120000000000005
20.929613989,-0.279999999999973,-0.139999999999986
20.939614239,-0.279999999999973,-0.120000000000005
20.949614392,-0.279999999999973,-0.0800000000000409
20.959614623,-0.259999999999991,-0.0399999999999636
20.969614815,-0.279999999999973,-0.0599999999999454
20.979615083,-0.32000000000005,-0.120000000000005
20.989615236,-0.360000000000014,-0.159999999999968
20.999615467,-0.379999999999995,-0.139999999999986
21.009615639,-0.379999999999995,-0.100000000000023
21.019615908,-0.299999999999955,-0.0599999999999454
21.02961608,-0.220000000000027,-0.0800000000000409
21.03961633,-0.200000000000045,-0.100000000000023
21.049616503,-0.240000000000009,-0.120000000000005
21.059616733,-0.340000000000032,-0.0800000000000409
21.069616905,-0.419999999999959,-0.0399999999999636
21.079617174,-0.460000000000036,-0.0199999999999818
21.089617346,-0.440000000000055,-0.0399999999999636
21.099617577,-0.399999999999977,-0.0800000000000409
21.10961775,-0.360000000000014,-0.0800000000000409
21.119617998,-0.340000000000032,-0.0599999999999454
21.12961819,-0.360000000000014,-0.0199999999999818
21.139618421,-0.379999999999995,-0.0199999999999818
21.149618594,-0.399999999999977,-0.0199999999999818
21.159618823,-0.399999999999977,-0.0399999999999636
21.169619015,-0.419999999999959,-0.0800000000000409
21.179619265,-0.460000000000036,-0.100000000000023
21.189619476,-0.5,-0.100000000000023
21.199619706,-0.519999999999982,-0.0800000000000409
21.209619917,-0.480000000000018,-0.0399999999999636
21.219620186,-0.379999999999995,-0.0199999999999818
21.229620378,-0.299999999999955,-0.0399999999999636
21.239620608,-0.259999999999991,-0.0599999999999454
21.24962078,-0.279999999999973,-0.0800000000000409
21.259621049,-0.32000000000005,-0.0800000000000409
21.26962126,-0.399999999999977,-0.0599999999999454
21.27962151,-0.440000000000055,-0.0399999999999636
21.289621682,-0.460000000000036,-0.0199999999999818
21.299621931,-0.419999999999959,-0.0199999999999818
21.309622142,-0.379999999999995,-0.0599999999999454
21.319622392,-0.340000000000032,-0.100000000000023
21.329622603,-0.340000000000032,-0.0800000000000409
21.339622834,-0.340000000000032,-0.0599999999999454
21.349622986,-0.32000000000005,-0.0599999999999454
21.359623274,-0.340000000000032,-0.0599999999999454
21.369623466,-0.379999999999995,-0.0800000000000409
21.379623735,-0.419999999999959,-0.100000000000023
21.389623888,-0.419999999999959,-0.0800000000000409
21.399624138,-0.419999999999959,-0.0800000000000409
21.409624349,-0.379999999999995,-0.0599999999999454
21.419624599,-0.340000000000032,-0.0599999999999454
21.429624791,-0.299999999999955,-0.0599999999999454
21.439625039,-0.32000000000005,-0.0599999999999454
21.449625193,-0.340000000000032,-0.0599999999999454
21.459625481,-0.360000000000014,-0.0800000000000409
21.469625673,-0.379999999999995,-0.100000000000023
21.479625922,-0.379999999999995,-0.100000000000023
21.489626094,-0.399999999999977,-0.120000000000005
21.499626325,-0.419999999999959,-0.100000000000023
21.509626555,-0.399999999999977,-0.0599999999999454
21.519626805,-0.360000000000014,-0.0399999999999636
21.529626996,-0.32000000000005,-0.0199999999999818
21.539627226,-0.279999999999973,-0.0399999999999636
21.549627399,-0.279999999999973,-0.0800000000000409
21.559627687,-0.340000000000032,-0.100000000000023
21.569627859,-0.440000000000055,-0.0800000000000409
21.579628128,-0.5,-0.0599999999999454
21.589628301,-0.5,-0.0399999999999636
21.599628531,-0.419999999999959,-0.0199999999999818
21.609628743,-0.279999999999973,-0.0399999999999636
21.619628991,-0.200000000000045,-0.0599999999999454
21.629629164,-0.240000000000009,-0.0599999999999454
21.639629394,-0.360000000000014,-0.0599999999999454
21.649629625,-0.480000000000018,-0.0399999999999636
21.659629875,-0.559999999999945,-0.0199999999999818
21.669630066,-0.519999999999982,-0.0199999999999818
21.679630296,-0.399999999999977,-0.0199999999999818
21.689630488,-0.299999999999955,-0.0599999999999454
21.699630757,-0.279999999999973,-0.100000000000023
21.709630967,-0.340000000000032,-0.100000000000023
21.719631217,-0.419999999999959,-0.0800000000000409
21.72963139,-0.460000000000036,-0.0800000000000409
21.739631601,-0.419999999999959,-0.100000000000023
21.749631831,-0.379999999999995,-0.139999999999986
21.75963208,-0.360000000000014,-0.17999999999995
21.769632291,-0.379999999999995,-0.17999999999995
21.779632503,-0.419999999999959,-0.139999999999986
21.789632695,-0.460000000000036,-0.0800000000000409
21.799632962,-0.460000000000036,-0.0800000000000409
21.809633177,-0.419999999999959,-0.100000000000023
21.819633418,-0.379999999999995,-0.139999999999986
21.829633622,-0.360000000000014,-0.17999999999995
21.839633844,-0.399999999999977,-0.17999999999995
21.849634086,-0.480000000000018,-0.17999999999995
21.859634327,-0.539999999999964,-0.159999999999968
21.869634569,-0.519999999999982,-0.120000000000005
21.879634792,-0.440000000000055,-0.100000000000023
21.889634976,-0.360000000000014,-0.100000000000023
21.899635275,-0.32000000000005,-0.120000000000005
21.909635478,-0.340000000000032,-0.139999999999986
21.919635739,-0.419999999999959,-0.139999999999986
21.929635923,-0.5,-0.120000000000005
21.939636165,-0.539999999999964,-0.120000000000005
21.949636406,-0.519999999999982,-0.120000000000005
21.959636648,-0.460000000000036,-0.120000000000005
21.96963689,-0.399999999999977,-0.120000000000005
21.979637112,-0.340000000000032,-0.100000000000023
21.989637296,-0.340000000000032,-0.0599999999999454
21.999637576,-0.340000000000032,-0.0800000000000409
22.009637798,-0.399999999999977,-0.100000000000023
22.019638041,-0.440000000000055,-0.139999999999986
22.029638244,-0.480000000000018,-0.139999999999986
22.039638485,-0.480000000000018,-0.100000000000023
22.049638727,-0.440000000000055,-0.0800000000000409
22.059638949,-0.399999999999977,-0.0599999999999454
22.069639172,-0.360000000000014,-0.0800000000000409
22.079639394,-0.340000000000032,-0.120000000000005
22.089639636,-0.360000000000014,-0.139999999999986
22.099639897,-0.399999999999977,-0.159999999999968
22.10964012,-0.480000000000018,-0.120000000000005
22.119640342,-0.5,-0.100000000000023
22.129640564,-0.460000000000036,-0.0599999999999454
22.139640806,-0.399999999999977,-0.0800000000000409
22.149641066,-0.340000000000032,-0.120000000000005
22.15964129,-0.360000000000014,-0.159999999999968
22.169641512,-0.399999999999977,-0.17999999999995
22.179641696,-0.440000000000055,-0.139999999999986
22.189641976,-0.460000000000036,-0.100000000000023
22.199642198,-0.440000000000055,-0.0800000000000409
22.20964246,-0.379999999999995,-0.100000000000023
22.219642663,-0.340000000000032,-0.139999999999986
22.229642885,-0.360000000000014,-0.159999999999968
22.239643126,-0.399999999999977,-0.120000000000005
22.249643369,-0.440000000000055,-0.0800000000000409
22.25964361,-0.440000000000055,-0.0599999999999454
22.269643832,-0.419999999999959,-0.100000000000023
22.279644016,-0.360000000000014,-0.120000000000005
22.289644296,-0.340000000000032,-0.139999999999986
22.299644519,-0.340000000000032,-0.159999999999968
22.309644761,-0.379999999999995,-0.139999999999986
22.319644964,-0.419999999999959,-0.100000000000023
22.329645205,-0.440000000000055,-0.0599999999999454
22.339645447,-0.399999999999977,-0.0800000000000409
22.349645689,-0.379999999999995,-0.120000000000005
22.359645911,-0.379999999999995,-0.120000000000005
22.369646134,-0.399999999999977,-0.100000000000023
22.379646337,-0.419999999999959,-0.0599999999999454
22.389646598,-0.419999999999959,-0.0599999999999454
22.39964684,-0.419999999999959,-0.0800000000000409
22.409647081,-0.419999999999959,-0.100000000000023
22.419647284,-0.419999999999959,-0.120000000000005
22.429647506,-0.419999999999959,-0.120000000000005
22.439647768,-0.419999999999959,-0.100000000000023
22.449647971,-0.440000000000055,-0.0399999999999636
22.459648193,-0.399999999999977,-0.0199999999999818
22.469648435,-0.379999999999995,-0.0199999999999818
22.479648676,-0.360000000000014,-0.0599999999999454
22.489648919,-0.399999999999977,-0.120000000000005
22.499649141,-0.440000000000055,-0.120000000000005
22.509649382,-0.480000000000018,-0.0599999999999454
22.519649605,-0.5,-0.0199999999999818
22.529649847,-0.440000000000055,-0.0199999999999818
22.539650108,-0.379999999999995,-0.0399999999999636
22.54965033,-0.340000000000032,-0.0399999999999636
22.559650552,-0.360000000000014,-0.0599999999999454
22.569650736,-0.379999999999995,-0.0800000000000409
22.579651017,-0.419999999999959,-0.100000000000023
22.589651239,-0.440000000000055,-0.120000000000005
22.599651481,-0.440000000000055,-0.100000000000023
22.609651703,-0.440000000000055,-0.0800000000000409
22.619651906,-0.440000000000055,-0.0399999999999636
22.629652168,-0.419999999999959,-0.0199999999999818
22.639652409,-0.399999999999977,-0.0399999999999636
22.649652631,-0.360000000000014,-0.0800000000000409
22.659652854,-0.340000000000032,-0.120000000000005
22.669653057,-0.32000000000005,-0.139999999999986
22.679653318,-0.360000000000014,-0.139999999999986
22.68965356,-0.419999999999959,-0.120000000000005
22.699653801,-0.480000000000018,-0.100000000000023
22.709654004,-0.480000000000018,-0.0599999999999454
22.719654227,-0.440000000000055,-0.0599999999999454
22.729654488,-0.399999999999977,-0.0800000000000409
22.73965473,-0.379999999999995,-0.100000000000023
22.749654952,-0.379999999999995,-0.100000000000023
22.759655174,-0.379999999999995,-0.100000000000023
22.769655378,-0.379999999999995,-0.0599999999999454
22.779655639,-0.399999999999977,-0.0199999999999818
22.78965588,-0.379999999999995,-0.0399999999999636
22.799656122,-0.379999999999995,-0.0399999999999636
22.809656326,-0.399999999999977,-0.0599999999999454
22.819656529,-0.419999999999959,-0.0399999999999636
22.82965679,-0.460000000000036,-0.0199999999999818
22.839657013,-0.460000000000036,0
22.849657236,-0.440000000000055,0
22.859657478,-0.399999999999977,0.0199999999999818
22.86965772,-0.360000000000014,0
22.879657962,-0.340000000000032,0
22.889658185,-0.379999999999995,-0.0399999999999636
22.899658427,-0.399999999999977,-0.0399999999999636
22.909658631,-0.399999999999977,-0.0399999999999636
22.919658893,-0.379999999999995,0
22.929659134,-0.340000000000032,0
22.939659357,-0.32000000000005,0
22.94965958,-0.360000000000014,-0.0199999999999818
22.959659783,-0.399999999999977,-0.0599999999999454
22.969660045,-0.460000000000036,-0.0599999999999454
22.979660267,-0.480000000000018,-0.0399999999999636
22.989660471,-0.460000000000036,-0.0399999999999636
22.999660675,-0.399999999999977,-0.0599999999999454
23.009660917,-0.32000000000005,-0.0800000000000409
23.01966114,-0.299999999999955,-0.100000000000023
23.029661383,-0.299999999999955,-0.100000000000023
23.039661586,-0.340000000000032,-0.0800000000000409
23.049661809,-0.419999999999959,-0.0800000000000409
23.059661994,-0.460000000000036,-0.100000000000023
23.069662254,-0.440000000000055,-0.139999999999986
23.079662477,-0.399999999999977,-0.139999999999986
23.089662701,-0.360000000000014,-0.120000000000005
23.099662904,-0.340000000000032,-0.0800000000000409
23.109663127,-0.32000000000005,-0.0599999999999454
23.119663349,-0.340000000000032,-0.0599999999999454
23.129663592,-0.360000000000014,-0.0800000000000409
23.139663796,-0.399999999999977,-0.100000000000023
23.149664037,-0.419999999999959,-0.0800000000000409
23.159664222,-0.379999999999995,-0.0599999999999454
23.169664464,-0.340000000000032,-0.0399999999999636
23.179664706,-0.340000000000032,-0.0599999999999454
23.189664929,-0.340000000000032,-0.0800000000000409
23.199665114,-0.360000000000014,-0.0800000000000409
23.209665336,-0.399999999999977,-0.100000000000023
23.219665578,-0.460000000000036,-0.0800000000000409
23.229665821,-0.440000000000055,-0.0599999999999454
23.239666024,-0.379999999999995,-0.0199999999999818
23.249666247,-0.32000000000005,-0.0199999999999818
23.25966645,-0.299999999999955,-0.0399999999999636
23.269666693,-0.32000000000005,-0.120000000000005
23.279666916,-0.379999999999995,-0.139999999999986
23.289667138,-0.440000000000055,-0.120000000000005
23.299667342,-0.440000000000055,-0.0800000000000409
23.309667585,-0.399999999999977,-0.0399999999999636
23.319667807,-0.379999999999995,-0.0599999999999454
23.329668049,-0.379999999999995,-0.100000000000023
23.339668234,-0.440000000000055,-0.100000000000023
23.349668456,-0.460000000000036,-0.0800000000000409
23.359668699,-0.419999999999959,-0.0599999999999454
23.369668941,-0.360000000000014,-0.0199999999999818
23.379669125,-0.299999999999955,0
23.389669367,-0.240000000000009,0
23.399669571,-0.279999999999973,-0.0199999999999818
23.409669813,-0.379999999999995,-0.0599999999999454
23.419670036,-0.5,-0.100000000000023
23.429670258,-0.580000000000041,-0.0800000000000409
23.439670462,-0.539999999999964,-0.0399999999999636
23.449670686,-0.419999999999959,-0.0199999999999818
23.459670908,-0.279999999999973,0
23.46967115,-0.220000000000027,-0.0399999999999636
23.479671354,-0.259999999999991,-0.0399999999999636
23.489671576,-0.379999999999995,-0.0199999999999818
23.49967178,-0.5,0
23.509672023,-0.539999999999964,0
23.519672245,-0.480000000000018,-0.0599999999999454
23.529672468,-0.360000000000014,-0.100000000000023
23.539672672,-0.279999999999973,-0.100000000000023
23.549672895,-0.279999999999973,-0.0800000000000409
23.559673118,-0.32000000000005,-0.0399999999999636
23.569673379,-0.379999999999995,0
23.579673583,-0.419999999999959,0
23.589673806,-0.419999999999959,-0.0199999999999818
23.59967399,-0.379999999999995,-0.0599999999999454
23.609674251,-0.379999999999995,-0.0800000000000409
23.619674474,-0.399999999999977,-0.0599999999999454
23.629674697,-0.379999999999995,-0.0399999999999636
23.639674901,-0.340000000000032,0
23.649675124,-0.32000000000005,0
23.659675346,-0.279999999999973,0
23.669675589,-0.299999999999955,-0.0199999999999818
23.679675793,-0.340000000000032,-0.0199999999999818
23.689676015,-0.379999999999995,-0.0399999999999636
23.699676219,-0.419999999999959,-0.0399999999999636
23.70967648,-0.440000000000055,-0.0199999999999818
23.719676703,-0.419999999999959,0
23.729676907,-0.360000000000014,0
23.73967711,-0.32000000000005,0
23.749677371,-0.340000000000032,0
23.759677595,-0.360000000000014,0
23.769677817,-0.379999999999995,0.0199999999999818
23.779678021,-0.399999999999977,0
23.789678244,-0.379999999999995,0
23.799678466,-0.340000000000032,-0.0399999999999636
23.809678709,-0.340000000000032,-0.0800000000000409
23.819678903,-0.379999999999995,-0.0599999999999454
23.829679112,-0.440000000000055,0
23.839679303,-0.460000000000036,0.0399999999999636
23.849679551,-0.419999999999959,0.0599999999999454
23.859679742,-0.360000000000014,0.0199999999999818
23.869679951,-0.32000000000005,-0.0199999999999818
23.879680142,-0.32000000000005,-0.0800000000000409
23.889680351,-0.340000000000032,-0.100000000000023
23.899680561,-0.379999999999995,-0.0800000000000409
23.909680809,-0.419999999999959,-0.0599999999999454
23.919680999,-0.419999999999959,-0.0399999999999636
23.929681209,-0.399999999999977,-0.0399999999999636
23.93968138,-0.360000000000014,-0.0399999999999636
23.949681629,-0.340000000000032,-0.0800000000000409
23.959681838,-0.340000000000032,-0.100000000000023
23.969682048,-0.399999999999977,-0.0800000000000409
23.979682238,-0.440000000000055,-0.0199999999999818
23.989682449,-0.440000000000055,0
23.999682658,-0.399999999999977,-0.0199999999999818
24.009682887,-0.340000000000032,-0.100000000000023
24.019683077,-0.299999999999955,-0.200000000000045
24.029683287,-0.340000000000032,-0.200000000000045
24.039683477,-0.419999999999959,-0.120000000000005
24.049683707,-0.440000000000055,-0.0399999999999636
24.059683935,-0.399999999999977,-0.0399999999999636
24.069684146,-0.340000000000032,-0.100000000000023
24.079684316,-0.299999999999955,-0.159999999999968
24.089684527,-0.299999999999955,-0.159999999999968
24.099684755,-0.340000000000032,-0.120000000000005
24.109684984,-0.440000000000055,-0.0800000000000409
24.119685155,-0.519999999999982,-0.0599999999999454
24.129685365,-0.5,-0.0399999999999636
24.139685575,-0.379999999999995,-0.0399999999999636
24.149685803,-0.279999999999973,-0.0599999999999454
24.159686013,-0.240000000000009,-0.0599999999999454
24.169686223,-0.279999999999973,-0.0199999999999818
24.179686414,-0.360000000000014,0
24.189686623,-0.440000000000055,0.0399999999999636
24.199686833,-0.460000000000036,0.0399999999999636
24.209687062,-0.440000000000055,0
24.219687253,-0.399999999999977,-0.0199999999999818
24.229687462,-0.340000000000032,-0.0199999999999818
24.239687691,-0.32000000000005,0
24.24968792,-0.32000000000005,0.0399999999999636
24.259688092,-0.32000000000005,0.0399999999999636
24.26968832,-0.32000000000005,0
24.279688492,-0.360000000000014,-0.0199999999999818
24.289688739,-0.399999999999977,-0.0399999999999636
24.299688949,-0.440000000000055,-0.0399999999999636
24.309689159,-0.460000000000036,0
24.319689349,-0.440000000000055,0
24.329689559,-0.360000000000014,0
24.339689768,-0.299999999999955,-0.0399999999999636
24.349689998,-0.279999999999973,-0.0800000000000409
24.359690188,-0.32000000000005,-0.100000000000023
24.369690398,-0.379999999999995,-0.0800000000000409
24.379690588,-0.440000000000055,-0.0599999999999454
24.389690818,-0.460000000000036,-0.0199999999999818
24.399691027,-0.399999999999977,-0.0199999999999818
24.409691256,-0.340000000000032,-0.0399999999999636
24.419691427,-0.32000000000005,-0.0599999999999454
24.429691637,-0.340000000000032,-0.100000000000023
24.439691846,-0.379999999999995,-0.0800000000000409
24.449692095,-0.419999999999959,-0.0800000000000409
24.459692285,-0.419999999999959,-0.0800000000000409
24.469692476,-0.379999999999995,-0.0800000000000409
24.479692666,-0.340000000000032,-0.100000000000023
24.489692914,-0.32000000000005,-0.100000000000023
24.499693124,-0.32000000000005,-0.100000000000023
24.509693333,-0.379999999999995,-0.0800000000000409
24.519693524,-0.419999999999959,-0.0199999999999818
24.529693734,-0.440000000000055,0
24.539693944,-0.419999999999959,0
24.549694172,-0.399999999999977,0
24.559694363,-0.379999999999995,-0.0399999999999636
24.569694572,-0.379999999999995,-0.0399999999999636
24.579694763,-0.399999999999977,-0.0199999999999818
24.589695011,-0.379999999999995,0.0199999999999818
24.599695202,-0.340000000000032,0.0599999999999454
24.609695411,-0.32000000000005,0.0399999999999636
24.619695602,-0.32000000000005,0
24.629695812,-0.360000000000014,-0.0199999999999818
24.639696022,-0.419999999999959,0
24.64969627,-0.480000000000018,0.0199999999999818
24.65969646,-0.480000000000018,0.0399999999999636
24.66969667,-0.419999999999959,0.0599999999999454
24.679696841,-0.379999999999995,0.0399999999999636
24.689697089,-0.360000000000014,0
24.699697298,-0.360000000000014,0
24.709697509,-0.379999999999995,0
24.719697699,-0.399999999999977,0.0199999999999818
24.729697909,-0.399999999999977,0.0199999999999818
24.739698118,-0.360000000000014,0
24.749698348,-0.340000000000032,-0.0199999999999818
24.759698538,-0.360000000000014,-0.0199999999999818
24.769698748,-0.360000000000014,0
24.779698938,-0.379999999999995,0
24.789699167,-0.399999999999977,0.0199999999999818
24.799699357,-0.399999999999977,0
24.809699554,-0.399999999999977,-0.0199999999999818
24.819699726,-0.419999999999959,-0.0399999999999636
24.829699917,-0.440000000000055,-0.0399999999999636
24.839700108,-0.419999999999959,-0.0399999999999636
24.849700261,-0.419999999999959,-0.0199999999999818
24.859700414,-0.399999999999977,-0.0399999999999636
24.869700604,-0.360000000000014,-0.0800000000000409
24.879700776,-0.340000000000032,-0.139999999999986
24.889700987,-0.340000000000032,-0.159999999999968
24.899701158,-0.340000000000032,-0.139999999999986
24.909701331,-0.360000000000014,-0.0800000000000409
24.919701484,-0.399999999999977,-0.0199999999999818
24.929701693,-0.419999999999959,0
24.939701885,-0.440000000000055,0
24.949702057,-0.419999999999959,-0.0199999999999818
24.959702228,-0.399999999999977,-0.0199999999999818
24.9697024,-0.360000000000014,0
24.979702611,-0.340000000000032,0
24.989702782,-0.340000000000032,0
24.999702974,-0.360000000000014,-0.0599999999999454
25.009703127,-0.360000000000014,-0.120000000000005
25.019703298,-0.379999999999995,-0.100000000000023
25.029703489,-0.399999999999977,-0.0399999999999636
25.0397037,-0.399999999999977,0.0199999999999818
25.049703871,-0.399999999999977,0.0599999999999454
25.059704044,-0.399999999999977,0.0199999999999818
25.069704197,-0.399999999999977,-0.0199999999999818
25.079704426,-0.399999999999977,-0.100000000000023
25.089704598,-0.419999999999959,-0.139999999999986
25.099704789,-0.399999999999977,-0.120000000000005
25.109704941,-0.360000000000014,-0.0599999999999454
25.119705113,-0.32000000000005,0
25.129705305,-0.279999999999973,0.0399999999999636
25.139705496,-0.299999999999955,0
25.149705687,-0.379999999999995,-0.0599999999999454
25.159705859,-0.460000000000036,-0.100000000000023
25.169706012,-0.5,-0.120000000000005
25.179706241,-0.460000000000036,-0.0599999999999454
25.189706413,-0.399999999999977,0
25.199706605,-0.299999999999955,0.0399999999999636
25.209706737,-0.220000000000027,0.0399999999999636
25.219706929,-0.220000000000027,0
25.22970712,-0.340000000000032,-0.0399999999999636
25.239707311,-0.460000000000036,-0.0399999999999636
25.249707502,-0.519999999999982,-0.0199999999999818
25.259707675,-0.480000000000018,0
25.269707807,-0.399999999999977,0
25.279708037,-0.299999999999955,0
25.28970819,-0.259999999999991,-0.0199999999999818
25.299708381,-0.279999999999973,0
25.309708534,-0.360000000000014,0.0199999999999818
25.319708764,-0.440000000000055,0
25.329708935,-0.5,0
25.339709126,-0.460000000000036,-0.0199999999999818
25.349709279,-0.360000000000014,-0.0399999999999636
25.359709489,-0.259999999999991,-0.0399999999999636
25.369709642,-0.240000000000009,-0.0599999999999454
25.379709872,-0.299999999999955,-0.0599999999999454
25.389710024,-0.379999999999995,-0.0199999999999818
25.399710215,-0.460000000000036,0.0199999999999818
25.409710368,-0.460000000000036,0.0399999999999636
25.419710597,-0.440000000000055,0
25.42971077,-0.419999999999959,-0.0399999999999636
25.439710961,-0.379999999999995,-0.0599999999999454
25.449711113,-0.360000000000014,-0.0399999999999636
25.459711285,-0.32000000000005,0
25.469711496,-0.299999999999955,0
25.479711686,-0.259999999999991,-0.0199999999999818
25.489711859,-0.240000000000009,-0.0599999999999454
25.499712031,-0.299999999999955,-0.0599999999999454
25.509712183,-0.360000000000014,-0.0199999999999818
25.519712394,-0.399999999999977,0
25.529712585,-0.419999999999959,0.0399999999999636
25.539712775,-0.379999999999995,0.0199999999999818
25.549712928,-0.340000000000032,0
25.559713101,-0.299999999999955,0
25.569713291,-0.299999999999955,-0.0199999999999818
25.579713502,-0.32000000000005,-0.0199999999999818
25.589713674,-0.299999999999955,0
25.599713845,-0.299999999999955,0
25.609713998,-0.299999999999955,0
25.619714209,-0.279999999999973,0
25.62971438,-0.299999999999955,-0.0199999999999818
25.639714591,-0.340000000000032,-0.0199999999999818
25.649714744,-0.360000000000014,0
25.659714896,-0.360000000000014,0
25.669715107,-0.360000000000014,0.0199999999999818
25.679715298,-0.32000000000005,0.0599999999999454
25.689715469,-0.279999999999973,0.0800000000000409
25.699715642,-0.279999999999973,0.0599999999999454
25.709715814,-0.299999999999955,0.0199999999999818
25.719716023,-0.32000000000005,0
25.729716196,-0.340000000000032,0
25.739716406,-0.360000000000014,0.0199999999999818
25.749716539,-0.299999999999955,0.0399999999999636
25.759716711,-0.220000000000027,0.0199999999999818
25.769716903,-0.200000000000045,0
25.779717093,-0.240000000000009,-0.0199999999999818
25.789717266,-0.299999999999955,0
25.799717438,-0.340000000000032,0.0800000000000409
25.809717668,-0.360000000000014,0.159999999999968
25.819717898,-0.32000000000005,0.159999999999968
25.829718108,-0.240000000000009,0.120000000000005
25.839718317,-0.200000000000045,0.0599999999999454
25.849718528,-0.159999999999968,0.0399999999999636
25.859718757,-0.100000000000023,0.0399999999999636
25.869719005,-0.0599999999999454,0.0599999999999454
25.879719215,-0.0399999999999636,0.100000000000023
25.889719425,-0.120000000000005,0.139999999999986
25.899719634,-0.240000000000009,0.17999999999995
25.909719864,-0.32000000000005,0.220000000000027
25.919720113,-0.340000000000032,0.200000000000045
25.929720322,-0.299999999999955,0.139999999999986
25.939720532,-0.259999999999991,0.120000000000005
25.949720722,-0.159999999999968,0.120000000000005
25.95972099,-0.0599999999999454,0.120000000000005
25.969721181,-0.0399999999999636,0.0800000000000409
25.979721429,-0.100000000000023,0.0399999999999636
25.98972162,-0.200000000000045,0.0599999999999454
25.99972183,-0.259999999999991,0.139999999999986
26.009722058,-0.279999999999973,0.220000000000027
26.019722307,-0.240000000000009,0.259999999999991
26.029722517,-0.17999999999995,0.220000000000027
26.039722727,-0.139999999999986,0.139999999999986
26.049722898,-0.120000000000005,0.0800000000000409
26.059723166,-0.139999999999986,0.0399999999999636
26.069723375,-0.17999999999995,0.0599999999999454
26.079723605,-0.200000000000045,0.120000000000005
26.089723815,-0.17999999999995,0.200000000000045
26.099724024,-0.120000000000005,0.220000000000027
26.109724254,-0.0800000000000409,0.159999999999968
26.119724503,-0.0800000000000409,0.100000000000023
26.129724712,-0.120000000000005,0.0800000000000409
26.139724903,-0.17999999999995,0.120000000000005
26.149725094,-0.240000000000009,0.17999999999995
26.159725361,-0.240000000000009,0.200000000000045
26.169725571,-0.17999999999995,0.200000000000045
26.1797258,-0.120000000000005,0.17999999999995
26.18972599,-0.0599999999999454,0.17999999999995
26.199726258,-0.0599999999999454,0.17999999999995
26.209726469,-0.100000000000023,0.200000000000045
26.219726697,-0.159999999999968,0.240000000000009
26.229726888,-0.159999999999968,0.240000000000009
26.239727137,-0.120000000000005,0.200000000000045
26.249727327,-0.100000000000023,0.159999999999968
26.259727614,-0.0800000000000409,0.139999999999986
26.269727786,-0.0800000000000409,0.159999999999968
26.279728014,-0.0800000000000409,0.220000000000027
26.289728205,-0.0800000000000409,0.240000000000009
26.299728473,-0.0599999999999454,0.240000000000009
26.309728682,-0.0399999999999636,0.200000000000045
26.319728912,-0.0399999999999636,0.159999999999968
26.329729103,-0.0599999999999454,0.120000000000005
26.339729312,-0.0800000000000409,0.139999999999986
26.349729561,-0.0599999999999454,0.200000000000045
26.35972979,0,0.259999999999991
26.369729999,0.0800000000000409,0.240000000000009
26.37973021,0.139999999999986,0.17999999999995
26.389730401,0.120000000000005,0.139999999999986
26.399730667,0.0599999999999454,0.120000000000005
26.409730878,-0.0199999999999818,0.159999999999968
26.419731107,-0.0599999999999454,0.220000000000027
26.429731297,-0.0399999999999636,0.259999999999991
26.439731507,0.0199999999999818,0.279999999999973
26.449731736,0.100000000000023,0.279999999999973
26.459731985,0.120000000000005,0.240000000000009
